,subject,age_group_x,roi,triplet,comparison,within_sim,across_sim,difference,trials,triplet_accuracy,avg_RT,avg_repetitions,age,sex,scanner
0,temple016,adult,sl-AB_age_gm,1,AB,0.1756189244055825,0.0127857615043523,0.1628331629012301,8,0.875,5.4163625,1.375,31.1,M,skyra
1,temple016,adult,sl-AB_age_gm,2,AB,0.1383124480400117,0.1461233355769363,-0.0078108875369246,8,0.875,10.8661375,1.0,31.1,M,skyra
2,temple016,adult,sl-AB_age_gm,3,AB,-0.1529936713184568,0.0461313680419534,-0.1991250393604102,8,1.0,6.5996500000000005,1.25,31.1,M,skyra
3,temple016,adult,sl-AB_age_gm,4,AB,0.2252754544617186,-0.0159637861677545,0.2412392406294732,8,1.0,6.7611375,1.125,31.1,M,skyra
4,temple016,adult,sl-AB_group_hip,1,AB,0.334385060366213,-0.1103209583366508,0.4447060187028638,8,0.875,5.4163625,1.375,31.1,M,skyra
5,temple016,adult,sl-AB_group_hip,2,AB,0.0220238591639509,-0.0135608541411846,0.0355847133051356,8,0.875,10.8661375,1.0,31.1,M,skyra
6,temple016,adult,sl-AB_group_hip,3,AB,-0.0860502272755621,0.027452415384361,-0.1135026426599232,8,1.0,6.5996500000000005,1.25,31.1,M,skyra
7,temple016,adult,sl-AB_group_hip,4,AB,-0.1406242349622396,-0.09697933251213,-0.0436449024501096,8,1.0,6.7611375,1.125,31.1,M,skyra
8,temple016,adult,sl-AC_age_hip,1,AC,-0.2702581568166672,-0.1579858896815752,-0.1122722671350919,8,0.875,5.4163625,1.375,31.1,M,skyra
9,temple016,adult,sl-AC_age_hip,2,AC,0.0855052063139044,-0.1249849270285868,0.2104901333424912,8,0.875,10.8661375,1.0,31.1,M,skyra
10,temple016,adult,sl-AC_age_hip,3,AC,0.0250021873336817,-0.0314478678277635,0.0564500551614453,8,1.0,6.5996500000000005,1.25,31.1,M,skyra
11,temple016,adult,sl-AC_age_hip,4,AC,0.2772827300771456,-0.0520349723598262,0.3293177024369719,8,1.0,6.7611375,1.125,31.1,M,skyra
12,temple019,adult,sl-AB_age_gm,1,AB,-0.0649333926145682,0.0057582901588409,-0.0706916827734091,8,1.0,8.6506,1.25,26.19,F,skyra
13,temple019,adult,sl-AB_age_gm,2,AB,0.1073296008431688,0.1436944971059387,-0.0363648962627699,8,0.875,8.1511125,1.5,26.19,F,skyra
14,temple019,adult,sl-AB_age_gm,3,AB,-0.3468656639986892,0.0383313787109255,-0.3851970427096147,8,1.0,8.30285,1.125,26.19,F,skyra
15,temple019,adult,sl-AB_age_gm,4,AB,0.4369628379274839,0.1921776553778307,0.2447851825496532,8,0.875,7.494975,1.25,26.19,F,skyra
16,temple019,adult,sl-AB_group_hip,1,AB,0.0928547670729865,0.1404177856996113,-0.0475630186266248,8,1.0,8.6506,1.25,26.19,F,skyra
17,temple019,adult,sl-AB_group_hip,2,AB,0.0260888001830201,0.1782483287056411,-0.152159528522621,8,0.875,8.1511125,1.5,26.19,F,skyra
18,temple019,adult,sl-AB_group_hip,3,AB,-0.0457947569553539,0.2317035212396184,-0.2774982781949723,8,1.0,8.30285,1.125,26.19,F,skyra
19,temple019,adult,sl-AB_group_hip,4,AB,-0.1664030495312579,0.170592703720783,-0.336995753252041,8,0.875,7.494975,1.25,26.19,F,skyra
20,temple019,adult,sl-AC_age_hip,1,AC,0.1245986262539286,0.0924355707680678,0.0321630554858608,8,1.0,8.6506,1.25,26.19,F,skyra
21,temple019,adult,sl-AC_age_hip,2,AC,0.2574191141628071,0.0880036843121173,0.1694154298506898,8,0.875,8.1511125,1.5,26.19,F,skyra
22,temple019,adult,sl-AC_age_hip,3,AC,0.3784116606925715,0.1836906313638483,0.1947210293287232,8,1.0,8.30285,1.125,26.19,F,skyra
23,temple019,adult,sl-AC_age_hip,4,AC,-0.1807576556956328,0.0454247095445955,-0.2261823652402283,8,0.875,7.494975,1.25,26.19,F,skyra
24,temple020,adult,sl-AB_age_gm,1,AB,0.1573673569511363,0.2076051549297049,-0.0502377979785685,8,0.625,10.866375,1.375,23.11,F,skyra
25,temple020,adult,sl-AB_age_gm,2,AB,0.0139076351788464,0.2571660792284671,-0.2432584440496207,8,0.875,10.21765,1.25,23.11,F,skyra
26,temple020,adult,sl-AB_age_gm,3,AB,0.0752568226716847,0.2006790940288425,-0.1254222713571578,8,0.75,9.5566875,1.125,23.11,F,skyra
27,temple020,adult,sl-AB_age_gm,4,AB,0.3275745806837313,0.3480223903720454,-0.0204478096883141,8,1.0,9.64285,1.125,23.11,F,skyra
28,temple020,adult,sl-AB_group_hip,1,AB,-0.4596435264037732,-0.0495048809136802,-0.4101386454900929,8,0.625,10.866375,1.375,23.11,F,skyra
29,temple020,adult,sl-AB_group_hip,2,AB,0.2146071091615729,0.0601393501294488,0.1544677590321241,8,0.875,10.21765,1.25,23.11,F,skyra
30,temple020,adult,sl-AB_group_hip,3,AB,-0.0066600117950422,0.062490619004306,-0.0691506307993482,8,0.75,9.5566875,1.125,23.11,F,skyra
31,temple020,adult,sl-AB_group_hip,4,AB,-0.0927280561570522,0.0111931027189627,-0.1039211588760149,8,1.0,9.64285,1.125,23.11,F,skyra
32,temple020,adult,sl-AC_age_hip,1,AC,0.0709824598990219,0.0137446195953293,0.0572378403036926,8,0.625,10.866375,1.375,23.11,F,skyra
33,temple020,adult,sl-AC_age_hip,2,AC,0.0669762224556266,-0.0319680791917868,0.0989443016474134,8,0.875,10.21765,1.25,23.11,F,skyra
34,temple020,adult,sl-AC_age_hip,3,AC,-0.0803973089839343,0.0275238371745144,-0.1079211461584487,8,0.75,9.5566875,1.125,23.11,F,skyra
35,temple020,adult,sl-AC_age_hip,4,AC,0.4630386223126219,0.0907000533600834,0.3723385689525385,8,1.0,9.64285,1.125,23.11,F,skyra
36,temple022,adult,sl-AB_age_gm,1,AB,0.2541877903940236,-0.0161018282537465,0.2702896186477702,8,0.875,8.5567125,1.0,29.05,F,skyra
37,temple022,adult,sl-AB_age_gm,2,AB,0.3099034871146817,0.0098267778436423,0.3000767092710393,8,0.5,8.4072875,1.25,29.05,F,skyra
38,temple022,adult,sl-AB_age_gm,3,AB,0.2892704169582376,0.01067683977863,0.2785935771796075,8,0.625,8.2749125,1.0,29.05,F,skyra
39,temple022,adult,sl-AB_age_gm,4,AB,-0.4202449087893623,-0.0973131161408786,-0.3229317926484836,8,0.375,8.4673,1.0,29.05,F,skyra
40,temple022,adult,sl-AB_group_hip,1,AB,0.3712884193722991,0.1225429437112619,0.2487454756610371,8,0.875,8.5567125,1.0,29.05,F,skyra
41,temple022,adult,sl-AB_group_hip,2,AB,0.0340570449988721,-0.0023549348610224,0.0364119798598945,8,0.5,8.4072875,1.25,29.05,F,skyra
42,temple022,adult,sl-AB_group_hip,3,AB,0.1548232873623069,0.1317148241286871,0.0231084632336198,8,0.625,8.2749125,1.0,29.05,F,skyra
43,temple022,adult,sl-AB_group_hip,4,AB,-0.0979968957300737,-0.1555844697036285,0.0575875739735548,8,0.375,8.4673,1.0,29.05,F,skyra
44,temple022,adult,sl-AC_age_hip,1,AC,-0.0415131014446577,-0.1803457446166799,0.1388326431720221,8,0.875,8.5567125,1.0,29.05,F,skyra
45,temple022,adult,sl-AC_age_hip,2,AC,0.3594530026569629,0.1577264463559766,0.2017265563009862,8,0.5,8.4072875,1.25,29.05,F,skyra
46,temple022,adult,sl-AC_age_hip,3,AC,-0.0756042710415394,-0.2597934256715078,0.1841891546299684,8,0.625,8.2749125,1.0,29.05,F,skyra
47,temple022,adult,sl-AC_age_hip,4,AC,-0.2126998791558446,-0.1903883940236199,-0.0223114851322247,8,0.375,8.4673,1.0,29.05,F,skyra
48,temple023,adult,sl-AB_age_gm,1,AB,0.3662187319569818,0.1295750375851941,0.2366436943717876,8,0.75,10.68025,1.0,25.33,F,skyra
49,temple023,adult,sl-AB_age_gm,2,AB,0.3839104368264168,0.1324045501917506,0.2515058866346662,8,0.375,9.71675,1.0,25.33,F,skyra
50,temple023,adult,sl-AB_age_gm,3,AB,0.2420283621703041,0.17593705192959,0.066091310240714,8,0.75,9.0873125,1.0,25.33,F,skyra
51,temple023,adult,sl-AB_age_gm,4,AB,0.3834158347063927,0.1803437445880959,0.2030720901182968,8,0.375,9.343125,1.125,25.33,F,skyra
52,temple023,adult,sl-AB_group_hip,1,AB,0.2237524864882923,-0.3291233070783239,0.5528757935666162,8,0.75,10.68025,1.0,25.33,F,skyra
53,temple023,adult,sl-AB_group_hip,2,AB,0.2511219176560882,-0.1597059918253543,0.4108279094814426,8,0.375,9.71675,1.0,25.33,F,skyra
54,temple023,adult,sl-AB_group_hip,3,AB,0.2296296379412217,-0.2615538845945762,0.4911835225357979,8,0.75,9.0873125,1.0,25.33,F,skyra
55,temple023,adult,sl-AB_group_hip,4,AB,-0.3398195933153273,-0.2486810972768829,-0.0911384960384443,8,0.375,9.343125,1.125,25.33,F,skyra
56,temple023,adult,sl-AC_age_hip,1,AC,0.5754868296727621,0.2827525292702054,0.2927343004025566,8,0.75,10.68025,1.0,25.33,F,skyra
57,temple023,adult,sl-AC_age_hip,2,AC,0.2201854857100444,-0.0943616303480687,0.3145471160581132,8,0.375,9.71675,1.0,25.33,F,skyra
58,temple023,adult,sl-AC_age_hip,3,AC,0.7584701326701551,0.2248593871892432,0.5336107454809118,8,0.75,9.0873125,1.0,25.33,F,skyra
59,temple023,adult,sl-AC_age_hip,4,AC,0.0950334784369807,0.0900089487824946,0.0050245296544861,8,0.375,9.343125,1.125,25.33,F,skyra
60,temple024,adult,sl-AB_age_gm,1,AB,0.1322024396963701,-0.0471356400022575,0.1793380796986277,8,0.875,9.1821625,1.0,28.29,M,skyra
61,temple024,adult,sl-AB_age_gm,2,AB,-0.1570250051285184,-0.0809830817896505,-0.0760419233388679,8,0.5,9.3869125,1.0,28.29,M,skyra
62,temple024,adult,sl-AB_age_gm,3,AB,-0.2298168872189341,-0.1612232996314264,-0.0685935875875077,8,0.375,8.7178125,1.0,28.29,M,skyra
63,temple024,adult,sl-AB_age_gm,4,AB,-0.2050946846362048,-0.0701851073679262,-0.1349095772682785,8,0.375,9.4437125,1.0,28.29,M,skyra
64,temple024,adult,sl-AB_group_hip,1,AB,0.3304458135624252,0.0960632172460579,0.2343825963163672,8,0.875,9.1821625,1.0,28.29,M,skyra
65,temple024,adult,sl-AB_group_hip,2,AB,-0.1095615048352745,0.3092677131829638,-0.4188292180182384,8,0.5,9.3869125,1.0,28.29,M,skyra
66,temple024,adult,sl-AB_group_hip,3,AB,0.2414832904301941,0.1898967640239859,0.0515865264062081,8,0.375,8.7178125,1.0,28.29,M,skyra
67,temple024,adult,sl-AB_group_hip,4,AB,0.1328148353700211,0.2960106135616194,-0.1631957781915982,8,0.375,9.4437125,1.0,28.29,M,skyra
68,temple024,adult,sl-AC_age_hip,1,AC,-0.1739958762964818,-0.1181234103796753,-0.0558724659168064,8,0.875,9.1821625,1.0,28.29,M,skyra
69,temple024,adult,sl-AC_age_hip,2,AC,0.429280960547389,-0.2692199241999967,0.6985008847473857,8,0.5,9.3869125,1.0,28.29,M,skyra
70,temple024,adult,sl-AC_age_hip,3,AC,0.2070477611285566,-0.0103739817729112,0.2174217429014678,8,0.375,8.7178125,1.0,28.29,M,skyra
71,temple024,adult,sl-AC_age_hip,4,AC,0.0194893435737085,-0.1131315427038948,0.1326208862776033,8,0.375,9.4437125,1.0,28.29,M,skyra
72,temple025,adult,sl-AB_age_gm,1,AB,0.1565647055533507,-0.0186699872896519,0.1752346928430027,8,1.0,7.9850625,1.0,28.94,F,skyra
73,temple025,adult,sl-AB_age_gm,2,AB,-0.0944697002636174,-0.0295614174046372,-0.0649082828589802,8,1.0,7.932575,1.0,28.94,F,skyra
74,temple025,adult,sl-AB_age_gm,3,AB,0.1262725700172771,0.0090826900314547,0.1171898799858223,8,1.0,7.8480375,1.0,28.94,F,skyra
75,temple025,adult,sl-AB_age_gm,4,AB,0.010210469360941,-0.0245849972040683,0.0347954665650093,8,1.0,7.8161625,1.0,28.94,F,skyra
76,temple025,adult,sl-AB_group_hip,1,AB,-0.0379198600194402,0.0880950120068456,-0.1260148720262859,8,1.0,7.9850625,1.0,28.94,F,skyra
77,temple025,adult,sl-AB_group_hip,2,AB,0.0346554125734194,0.1331739880679017,-0.0985185754944822,8,1.0,7.932575,1.0,28.94,F,skyra
78,temple025,adult,sl-AB_group_hip,3,AB,0.2007394239488402,-0.0569421210083106,0.2576815449571509,8,1.0,7.8480375,1.0,28.94,F,skyra
79,temple025,adult,sl-AB_group_hip,4,AB,-0.2954760463479062,0.098463453611091,-0.3939394999589972,8,1.0,7.8161625,1.0,28.94,F,skyra
80,temple025,adult,sl-AC_age_hip,1,AC,0.3155437037711909,0.1034559738414154,0.2120877299297755,8,1.0,7.9850625,1.0,28.94,F,skyra
81,temple025,adult,sl-AC_age_hip,2,AC,-0.1285601568724166,-0.0570035233274761,-0.0715566335449405,8,1.0,7.932575,1.0,28.94,F,skyra
82,temple025,adult,sl-AC_age_hip,3,AC,-0.161679560929793,-0.0307042454619788,-0.1309753154678141,8,1.0,7.8480375,1.0,28.94,F,skyra
83,temple025,adult,sl-AC_age_hip,4,AC,-0.1175959478260863,-0.0955385769893946,-0.0220573708366917,8,1.0,7.8161625,1.0,28.94,F,skyra
84,temple029,adolescent,sl-AB_age_gm,1,AB,-0.1289789296750126,-0.0350195934822836,-0.0939593361927289,8,1.0,9.5593,1.125,11.04,F,skyra
85,temple029,adolescent,sl-AB_age_gm,2,AB,-0.2049345063502362,-0.0119625852698708,-0.1929719210803654,8,1.0,8.8037625,1.25,11.04,F,skyra
86,temple029,adolescent,sl-AB_age_gm,3,AB,-0.0392819390188785,-0.0712109418479473,0.0319290028290688,8,0.625,8.78055,1.25,11.04,F,skyra
87,temple029,adolescent,sl-AB_age_gm,4,AB,0.0051755499530285,-0.0322306130051419,0.0374061629581705,8,1.0,8.740425,1.125,11.04,F,skyra
88,temple029,adolescent,sl-AB_group_hip,1,AB,0.2322363325749741,0.0655661714307668,0.1666701611442073,8,1.0,9.5593,1.125,11.04,F,skyra
89,temple029,adolescent,sl-AB_group_hip,2,AB,0.4216586011915713,0.0671460983072828,0.3545125028842884,8,1.0,8.8037625,1.25,11.04,F,skyra
90,temple029,adolescent,sl-AB_group_hip,3,AB,-0.1476842760539878,-0.0316081583737236,-0.1160761176802642,8,0.625,8.78055,1.25,11.04,F,skyra
91,temple029,adolescent,sl-AB_group_hip,4,AB,0.1449987658588625,0.145259204182376,-0.0002604383235135,8,1.0,8.740425,1.125,11.04,F,skyra
92,temple029,adolescent,sl-AC_age_hip,1,AC,0.17448158706272,0.164989494849214,0.0094920922135059,8,1.0,9.5593,1.125,11.04,F,skyra
93,temple029,adolescent,sl-AC_age_hip,2,AC,0.0647474444169831,0.0027684291582493,0.0619790152587337,8,1.0,8.8037625,1.25,11.04,F,skyra
94,temple029,adolescent,sl-AC_age_hip,3,AC,0.3660206950988129,0.1338104056161496,0.2322102894826632,8,0.625,8.78055,1.25,11.04,F,skyra
95,temple029,adolescent,sl-AC_age_hip,4,AC,0.0010447789061381,0.1365598069252183,-0.1355150280190802,8,1.0,8.740425,1.125,11.04,F,skyra
96,temple030,adolescent,sl-AB_age_gm,1,AB,0.1313724106655799,0.1922882193300399,-0.06091580866446,8,0.875,9.4777375,1.5,10.4,M,skyra
97,temple030,adolescent,sl-AB_age_gm,2,AB,0.3840773655410431,0.1812868995286571,0.202790466012386,8,0.625,8.9982875,1.125,10.4,M,skyra
98,temple030,adolescent,sl-AB_age_gm,3,AB,0.3462571616617021,0.2795183427822948,0.0667388188794073,8,0.375,8.813975,1.875,10.4,M,skyra
99,temple030,adolescent,sl-AB_age_gm,4,AB,0.2320330996450061,0.2030752810474214,0.0289578185975846,8,0.25,11.09095,1.625,10.4,M,skyra
100,temple030,adolescent,sl-AB_group_hip,1,AB,0.0260514519510747,-0.0323943646214567,0.0584458165725314,8,0.875,9.4777375,1.5,10.4,M,skyra
101,temple030,adolescent,sl-AB_group_hip,2,AB,-0.1062334046209841,-0.0712282690253055,-0.0350051355956785,8,0.625,8.9982875,1.125,10.4,M,skyra
102,temple030,adolescent,sl-AB_group_hip,3,AB,-0.142787923451132,0.0673425857898348,-0.2101305092409668,8,0.375,8.813975,1.875,10.4,M,skyra
103,temple030,adolescent,sl-AB_group_hip,4,AB,-0.6158949493936502,0.0477824728730221,-0.6636774222666723,8,0.25,11.09095,1.625,10.4,M,skyra
104,temple030,adolescent,sl-AC_age_hip,1,AC,-0.3327848654781579,-0.1757834000191198,-0.157001465459038,8,0.875,9.4777375,1.5,10.4,M,skyra
105,temple030,adolescent,sl-AC_age_hip,2,AC,-0.2774106260327969,-0.1001003729873864,-0.1773102530454105,8,0.625,8.9982875,1.125,10.4,M,skyra
106,temple030,adolescent,sl-AC_age_hip,3,AC,0.2416825294527637,-0.132232288154726,0.3739148176074897,8,0.375,8.813975,1.875,10.4,M,skyra
107,temple030,adolescent,sl-AC_age_hip,4,AC,-0.0594151566059246,0.0022543782693801,-0.0616695348753048,8,0.25,11.09095,1.625,10.4,M,skyra
108,temple032,adolescent,sl-AB_age_gm,1,AB,-0.0952794042044878,0.0205388898430552,-0.1158182940475431,8,1.0,7.680525,1.0,12.98,F,skyra
109,temple032,adolescent,sl-AB_age_gm,2,AB,0.0262425655852343,-0.013023735155345,0.0392663007405794,8,1.0,6.9244375,1.0,12.98,F,skyra
110,temple032,adolescent,sl-AB_age_gm,3,AB,0.0460729400167611,0.0486648402521714,-0.0025919002354103,8,1.0,6.36135,1.0,12.98,F,skyra
111,temple032,adolescent,sl-AB_age_gm,4,AB,0.4926429704088546,0.0882773973560821,0.4043655730527725,8,1.0,6.80635,1.0,12.98,F,skyra
112,temple032,adolescent,sl-AB_group_hip,1,AB,0.1091358845697661,-0.0358421424612295,0.1449780270309957,8,1.0,7.680525,1.0,12.98,F,skyra
113,temple032,adolescent,sl-AB_group_hip,2,AB,0.2524501723624591,-0.226373021418274,0.4788231937807332,8,1.0,6.9244375,1.0,12.98,F,skyra
114,temple032,adolescent,sl-AB_group_hip,3,AB,-0.0466480357382382,-0.0556239715630252,0.0089759358247869,8,1.0,6.36135,1.0,12.98,F,skyra
115,temple032,adolescent,sl-AB_group_hip,4,AB,0.1801685635118927,-0.1039519961253246,0.2841205596372174,8,1.0,6.80635,1.0,12.98,F,skyra
116,temple032,adolescent,sl-AC_age_hip,1,AC,0.2317103901631604,0.1213647273212252,0.1103456628419352,8,1.0,7.680525,1.0,12.98,F,skyra
117,temple032,adolescent,sl-AC_age_hip,2,AC,-0.0385480706867866,0.0217173693199228,-0.0602654400067095,8,1.0,6.9244375,1.0,12.98,F,skyra
118,temple032,adolescent,sl-AC_age_hip,3,AC,0.0195206724066883,0.055835787691565,-0.0363151152848766,8,1.0,6.36135,1.0,12.98,F,skyra
119,temple032,adolescent,sl-AC_age_hip,4,AC,-0.164604006565702,0.102796350753706,-0.2674003573194081,8,1.0,6.80635,1.0,12.98,F,skyra
120,temple033,adolescent,sl-AB_age_gm,1,AB,-0.1340803343930945,-0.0855245605531309,-0.0485557738399636,8,0.25,9.0621625,1.125,11.4,F,skyra
121,temple033,adolescent,sl-AB_age_gm,2,AB,0.173700750688117,0.0222874781792546,0.1514132725088623,8,0.375,7.4635375,1.0,11.4,F,skyra
122,temple033,adolescent,sl-AB_age_gm,3,AB,0.0700630613408847,-0.0747065830432384,0.1447696443841231,8,0.875,7.321825,1.0,11.4,F,skyra
123,temple033,adolescent,sl-AB_age_gm,4,AB,-0.141341584083402,0.0388316670530085,-0.1801732511364105,8,0.375,7.463075,1.0,11.4,F,skyra
124,temple033,adolescent,sl-AB_group_hip,1,AB,0.0015310286585548,-0.0937482026726826,0.0952792313312374,8,0.25,9.0621625,1.125,11.4,F,skyra
125,temple033,adolescent,sl-AB_group_hip,2,AB,0.1757499544951533,-0.0633575264147958,0.2391074809099491,8,0.375,7.4635375,1.0,11.4,F,skyra
126,temple033,adolescent,sl-AB_group_hip,3,AB,-0.0906809591792522,-0.061640298935524,-0.0290406602437281,8,0.875,7.321825,1.0,11.4,F,skyra
127,temple033,adolescent,sl-AB_group_hip,4,AB,0.026097773176087,-0.0484785179310369,0.074576291107124,8,0.375,7.463075,1.0,11.4,F,skyra
128,temple033,adolescent,sl-AC_age_hip,1,AC,-0.3978958338527853,-0.2028944853380055,-0.1950013485147798,8,0.25,9.0621625,1.125,11.4,F,skyra
129,temple033,adolescent,sl-AC_age_hip,2,AC,-0.3631353000123331,-0.2915418039634542,-0.0715934960488789,8,0.375,7.4635375,1.0,11.4,F,skyra
130,temple033,adolescent,sl-AC_age_hip,3,AC,0.0449468114735323,-0.0450997040289456,0.0900465155024779,8,0.875,7.321825,1.0,11.4,F,skyra
131,temple033,adolescent,sl-AC_age_hip,4,AC,-0.1551957009460016,-0.1591292501507468,0.0039335492047452,8,0.375,7.463075,1.0,11.4,F,skyra
132,temple034,child,sl-AB_age_gm,1,AB,-0.1470097904556102,0.1165945463319231,-0.2636043367875334,4,0.25,8.516075,1.0,9.81,F,skyra
133,temple034,child,sl-AB_age_gm,2,AB,-0.1968621674406483,0.1039203448371614,-0.3007825122778097,5,1.0,8.53896,1.0,9.81,F,skyra
134,temple034,child,sl-AB_age_gm,3,AB,-0.0649441371321757,0.103868149034123,-0.1688122861662988,2,1.0,8.5705,1.0,9.81,F,skyra
135,temple034,child,sl-AB_age_gm,4,AB,0.4492089465245115,0.1579630720740546,0.2912458744504569,5,0.8,9.1445,1.0,9.81,F,skyra
136,temple034,child,sl-AB_group_hip,1,AB,-0.0723921880498662,-0.180511000194951,0.1081188121450847,4,0.25,8.516075,1.0,9.81,F,skyra
137,temple034,child,sl-AB_group_hip,2,AB,0.0485879868911035,-0.2497099760100448,0.2982979629011484,5,1.0,8.53896,1.0,9.81,F,skyra
138,temple034,child,sl-AB_group_hip,3,AB,-0.0775057100817496,-0.2157047363862954,0.1381990263045458,2,1.0,8.5705,1.0,9.81,F,skyra
139,temple034,child,sl-AB_group_hip,4,AB,-0.1693092554890763,-0.2199620432938634,0.050652787804787,5,0.8,9.1445,1.0,9.81,F,skyra
140,temple034,child,sl-AC_age_hip,1,AC,-0.3245482081039874,0.1289049047875924,-0.4534531128915798,4,0.25,8.516075,1.0,9.81,F,skyra
141,temple034,child,sl-AC_age_hip,2,AC,-0.1774980737947041,0.1007918550136391,-0.2782899288083433,5,1.0,8.53896,1.0,9.81,F,skyra
142,temple034,child,sl-AC_age_hip,3,AC,0.2698373613821894,0.1608349429054093,0.10900241847678,2,1.0,8.5705,1.0,9.81,F,skyra
143,temple034,child,sl-AC_age_hip,4,AC,-0.0189115037468566,0.2237117597297823,-0.2426232634766389,5,0.8,9.1445,1.0,9.81,F,skyra
144,temple035,adolescent,sl-AB_age_gm,1,AB,-0.0054641907227059,0.0862492260555363,-0.0917134167782423,8,0.375,8.1038625,1.0,11.27,F,skyra
145,temple035,adolescent,sl-AB_age_gm,2,AB,0.0812794720269386,0.1018433158997133,-0.0205638438727746,8,0.125,7.96585,1.25,11.27,F,skyra
146,temple035,adolescent,sl-AB_age_gm,3,AB,0.4358409420307218,0.2327062495297921,0.2031346925009297,8,0.375,7.8780625,1.0,11.27,F,skyra
147,temple035,adolescent,sl-AB_age_gm,4,AB,-0.0844581303197104,0.120498630954781,-0.2049567612744914,8,0.75,8.7277625,1.0,11.27,F,skyra
148,temple035,adolescent,sl-AB_group_hip,1,AB,0.5807424203222739,0.0062808284445196,0.5744615918777543,8,0.375,8.1038625,1.0,11.27,F,skyra
149,temple035,adolescent,sl-AB_group_hip,2,AB,0.1622855649757424,-0.0039079644300699,0.1661935294058124,8,0.125,7.96585,1.25,11.27,F,skyra
150,temple035,adolescent,sl-AB_group_hip,3,AB,-0.07862168310595,-0.0706812797483978,-0.0079404033575521,8,0.375,7.8780625,1.0,11.27,F,skyra
151,temple035,adolescent,sl-AB_group_hip,4,AB,-0.0390864004090489,-0.055399961110972,0.016313560701923,8,0.75,8.7277625,1.0,11.27,F,skyra
152,temple035,adolescent,sl-AC_age_hip,1,AC,0.3060841818808094,0.073524326135423,0.2325598557453863,8,0.375,8.1038625,1.0,11.27,F,skyra
153,temple035,adolescent,sl-AC_age_hip,2,AC,0.2879275475154406,0.0282289294327415,0.259698618082699,8,0.125,7.96585,1.25,11.27,F,skyra
154,temple035,adolescent,sl-AC_age_hip,3,AC,-0.5033113962395963,-0.089759949887803,-0.4135514463517932,8,0.375,7.8780625,1.0,11.27,F,skyra
155,temple035,adolescent,sl-AC_age_hip,4,AC,-0.1780150655689862,-0.0105874733198761,-0.16742759224911,8,0.75,8.7277625,1.0,11.27,F,skyra
156,temple036,adolescent,sl-AB_age_gm,1,AB,-0.1810225626656055,-0.1305546688860048,-0.0504678937796007,8,0.625,8.352525,1.0,11.04,M,skyra
157,temple036,adolescent,sl-AB_age_gm,2,AB,-0.2405494052175426,-0.1729588868713488,-0.0675905183461937,8,1.0,8.3939625,1.0,11.04,M,skyra
158,temple036,adolescent,sl-AB_age_gm,3,AB,-0.2755350099197347,-0.1917679600370011,-0.0837670498827335,8,1.0,9.4795,1.125,11.04,M,skyra
159,temple036,adolescent,sl-AB_age_gm,4,AB,-0.1068002702986886,-0.0836100413220496,-0.023190228976639,8,1.0,8.16135,1.0,11.04,M,skyra
160,temple036,adolescent,sl-AB_group_hip,1,AB,-0.3911699931065442,0.0012899530126046,-0.3924599461191488,8,0.625,8.352525,1.0,11.04,M,skyra
161,temple036,adolescent,sl-AB_group_hip,2,AB,0.1668396375550151,-0.0991585928391037,0.2659982303941189,8,1.0,8.3939625,1.0,11.04,M,skyra
162,temple036,adolescent,sl-AB_group_hip,3,AB,-0.1805619288483719,-0.0739465015512249,-0.106615427297147,8,1.0,9.4795,1.125,11.04,M,skyra
163,temple036,adolescent,sl-AB_group_hip,4,AB,-0.2022602109211102,-0.0551468137104566,-0.1471133972106535,8,1.0,8.16135,1.0,11.04,M,skyra
164,temple036,adolescent,sl-AC_age_hip,1,AC,0.167716882174305,0.2126269024137559,-0.0449100202394509,8,0.625,8.352525,1.0,11.04,M,skyra
165,temple036,adolescent,sl-AC_age_hip,2,AC,0.1963183146954278,-0.006628021682631,0.2029463363780589,8,1.0,8.3939625,1.0,11.04,M,skyra
166,temple036,adolescent,sl-AC_age_hip,3,AC,-0.0378610291517544,0.1042109083058627,-0.1420719374576172,8,1.0,9.4795,1.125,11.04,M,skyra
167,temple036,adolescent,sl-AC_age_hip,4,AC,0.2517710145832865,0.0654315362004243,0.1863394783828621,8,1.0,8.16135,1.0,11.04,M,skyra
168,temple037,adult,sl-AB_age_gm,1,AB,0.3140993762522144,0.1140343095383383,0.200065066713876,8,1.0,7.7150875,1.0,24.39,F,skyra
169,temple037,adult,sl-AB_age_gm,2,AB,-0.0853211471956296,0.093870330598487,-0.1791914777941166,8,1.0,7.7567875,1.0,24.39,F,skyra
170,temple037,adult,sl-AB_age_gm,3,AB,0.122134036356548,0.0739001014669214,0.0482339348896266,8,1.0,7.263125,1.25,24.39,F,skyra
171,temple037,adult,sl-AB_age_gm,4,AB,-0.0477803806763808,0.0415009209198898,-0.0892813015962707,8,1.0,8.0418375,1.0,24.39,F,skyra
172,temple037,adult,sl-AB_group_hip,1,AB,0.2393017718699328,-0.1171948591567676,0.3564966310267005,8,1.0,7.7150875,1.0,24.39,F,skyra
173,temple037,adult,sl-AB_group_hip,2,AB,-0.2704543472800879,0.0067662883232124,-0.2772206356033003,8,1.0,7.7567875,1.0,24.39,F,skyra
174,temple037,adult,sl-AB_group_hip,3,AB,0.1676618345132793,-0.1600553028342783,0.3277171373475577,8,1.0,7.263125,1.25,24.39,F,skyra
175,temple037,adult,sl-AB_group_hip,4,AB,0.1147637281030091,0.0235218526373957,0.0912418754656133,8,1.0,8.0418375,1.0,24.39,F,skyra
176,temple037,adult,sl-AC_age_hip,1,AC,0.0152059001661125,-0.0801745515722586,0.0953804517383712,8,1.0,7.7150875,1.0,24.39,F,skyra
177,temple037,adult,sl-AC_age_hip,2,AC,0.3136366138924861,0.1728965106444327,0.1407401032480534,8,1.0,7.7567875,1.0,24.39,F,skyra
178,temple037,adult,sl-AC_age_hip,3,AC,0.3692005372988623,-0.0057349231390445,0.3749354604379068,8,1.0,7.263125,1.25,24.39,F,skyra
179,temple037,adult,sl-AC_age_hip,4,AC,0.2367149639667559,0.0640524864526104,0.1726624775141455,8,1.0,8.0418375,1.0,24.39,F,skyra
180,temple038,adolescent,sl-AB_age_gm,1,AB,-0.1606501547172566,0.0565526606730071,-0.2172028153902637,8,0.875,8.418875,1.0,12.19,M,skyra
181,temple038,adolescent,sl-AB_age_gm,2,AB,-0.2888992706166938,0.0100598080268507,-0.2989590786435445,8,1.0,8.235325,1.0,12.19,M,skyra
182,temple038,adolescent,sl-AB_age_gm,3,AB,-0.2282294516217323,-0.0529163107298421,-0.1753131408918902,8,0.5,8.2752,1.0,12.19,M,skyra
183,temple038,adolescent,sl-AB_age_gm,4,AB,0.1075883496933555,0.1102143503184817,-0.0026260006251262,8,0.25,8.990125,1.0,12.19,M,skyra
184,temple038,adolescent,sl-AB_group_hip,1,AB,0.0978503380553809,-0.5151903127823058,0.6130406508376867,8,0.875,8.418875,1.0,12.19,M,skyra
185,temple038,adolescent,sl-AB_group_hip,2,AB,-0.0962937442347168,-0.1866801363433861,0.0903863921086693,8,1.0,8.235325,1.0,12.19,M,skyra
186,temple038,adolescent,sl-AB_group_hip,3,AB,-0.7841863124101858,-0.4922075557664738,-0.2919787566437119,8,0.5,8.2752,1.0,12.19,M,skyra
187,temple038,adolescent,sl-AB_group_hip,4,AB,-0.4509065199145932,-0.4898542867454624,0.0389477668308692,8,0.25,8.990125,1.0,12.19,M,skyra
188,temple038,adolescent,sl-AC_age_hip,1,AC,0.057085310806665,0.0910032756520988,-0.0339179648454338,8,0.875,8.418875,1.0,12.19,M,skyra
189,temple038,adolescent,sl-AC_age_hip,2,AC,0.0257594281850394,0.0775698327523888,-0.0518104045673494,8,1.0,8.235325,1.0,12.19,M,skyra
190,temple038,adolescent,sl-AC_age_hip,3,AC,0.332716554071951,0.0107641376573698,0.3219524164145811,8,0.5,8.2752,1.0,12.19,M,skyra
191,temple038,adolescent,sl-AC_age_hip,4,AC,0.0481114705680601,0.0867921705924269,-0.0386807000243667,8,0.25,8.990125,1.0,12.19,M,skyra
192,temple041,child,sl-AB_age_gm,1,AB,-0.0467431682845745,-0.0163900316129592,-0.0303531366716153,8,0.375,8.8552875,1.0,7.9,F,skyra
193,temple041,child,sl-AB_age_gm,2,AB,-0.5663541163965858,-0.1346308262403972,-0.4317232901561886,8,0.625,8.0912375,1.125,7.9,F,skyra
194,temple041,child,sl-AB_age_gm,3,AB,-0.0101903360059417,-0.0283649386861479,0.0181746026802062,8,0.25,7.8895625,1.0,7.9,F,skyra
195,temple041,child,sl-AB_age_gm,4,AB,0.0999018722823189,-0.0298173839389342,0.1297192562212531,8,0.5,7.8272625,1.0,7.9,F,skyra
196,temple041,child,sl-AB_group_hip,1,AB,0.0979657472008657,0.0303748802182451,0.0675908669826205,8,0.375,8.8552875,1.0,7.9,F,skyra
197,temple041,child,sl-AB_group_hip,2,AB,0.2575136415138047,-0.02622127026797,0.2837349117817748,8,0.625,8.0912375,1.125,7.9,F,skyra
198,temple041,child,sl-AB_group_hip,3,AB,-0.168241370699185,-0.1209475349379392,-0.0472938357612457,8,0.25,7.8895625,1.0,7.9,F,skyra
199,temple041,child,sl-AB_group_hip,4,AB,-0.0891473055786132,-0.0450493250229395,-0.0440979805556736,8,0.5,7.8272625,1.0,7.9,F,skyra
200,temple041,child,sl-AC_age_hip,1,AC,-0.0389653060269345,-0.0378275915753862,-0.0011377144515482,8,0.375,8.8552875,1.0,7.9,F,skyra
201,temple041,child,sl-AC_age_hip,2,AC,0.0887270931821224,-0.0874242944938431,0.1761513876759656,8,0.625,8.0912375,1.125,7.9,F,skyra
202,temple041,child,sl-AC_age_hip,3,AC,-0.1594339248266575,-0.0039230479306438,-0.1555108768960136,8,0.25,7.8895625,1.0,7.9,F,skyra
203,temple041,child,sl-AC_age_hip,4,AC,0.1343896891853135,-0.1329368160175563,0.2673265052028698,8,0.5,7.8272625,1.0,7.9,F,skyra
204,temple042,adolescent,sl-AB_age_gm,1,AB,-0.0808219081041789,-0.0540572965758514,-0.0267646115283275,8,0.875,8.9982,1.0,12.19,M,skyra
205,temple042,adolescent,sl-AB_age_gm,2,AB,0.0522481820440561,0.0543141026568136,-0.0020659206127575,8,0.875,9.170375,1.125,12.19,M,skyra
206,temple042,adolescent,sl-AB_age_gm,3,AB,-0.4239120646657178,-0.0524964181778695,-0.3714156464878482,8,1.0,8.778925,1.0,12.19,M,skyra
207,temple042,adolescent,sl-AB_age_gm,4,AB,-0.0220335258694308,-0.0503794959847541,0.0283459701153232,8,1.0,9.296075,1.5,12.19,M,skyra
208,temple042,adolescent,sl-AB_group_hip,1,AB,0.1759744124051285,0.1177851740086757,0.0581892383964527,8,0.875,8.9982,1.0,12.19,M,skyra
209,temple042,adolescent,sl-AB_group_hip,2,AB,0.064324414349983,-0.0088289081762747,0.0731533225262578,8,0.875,9.170375,1.125,12.19,M,skyra
210,temple042,adolescent,sl-AB_group_hip,3,AB,-0.1025033957263367,0.0385463780154949,-0.1410497737418317,8,1.0,8.778925,1.0,12.19,M,skyra
211,temple042,adolescent,sl-AB_group_hip,4,AB,0.1883764094689407,0.0170945068455134,0.1712819026234273,8,1.0,9.296075,1.5,12.19,M,skyra
212,temple042,adolescent,sl-AC_age_hip,1,AC,0.2277842246090638,-0.1012976343334584,0.3290818589425223,8,0.875,8.9982,1.0,12.19,M,skyra
213,temple042,adolescent,sl-AC_age_hip,2,AC,0.0351053083165077,-0.0479148865477087,0.0830201948642165,8,0.875,9.170375,1.125,12.19,M,skyra
214,temple042,adolescent,sl-AC_age_hip,3,AC,-0.18898473494479,-0.1140487577464914,-0.0749359771982986,8,1.0,8.778925,1.0,12.19,M,skyra
215,temple042,adolescent,sl-AC_age_hip,4,AC,0.0119295210289165,-0.0621897254507925,0.0741192464797091,8,1.0,9.296075,1.5,12.19,M,skyra
216,temple045,adolescent,sl-AB_age_gm,1,AB,-0.2288781682249588,0.0804158128647852,-0.3092939810897441,8,0.875,9.0174125,1.125,12.57,F,skyra
217,temple045,adolescent,sl-AB_age_gm,2,AB,0.1200376092076033,0.0913465750794286,0.0286910341281746,8,1.0,9.359925,1.0,12.57,F,skyra
218,temple045,adolescent,sl-AB_age_gm,3,AB,0.0887950644576769,0.1124818775841238,-0.0236868131264468,8,0.0,9.4515625,1.25,12.57,F,skyra
219,temple045,adolescent,sl-AB_age_gm,4,AB,0.2591768347519187,0.1208471883295927,0.1383296464223259,8,0.5,8.909575,1.0,12.57,F,skyra
220,temple045,adolescent,sl-AB_group_hip,1,AB,-0.0430985567450151,0.0663289369373422,-0.1094274936823573,8,0.875,9.0174125,1.125,12.57,F,skyra
221,temple045,adolescent,sl-AB_group_hip,2,AB,0.057381350326026,0.0442780336361575,0.0131033166898684,8,1.0,9.359925,1.0,12.57,F,skyra
222,temple045,adolescent,sl-AB_group_hip,3,AB,-0.1931893405806607,-0.0163619823726029,-0.1768273582080577,8,0.0,9.4515625,1.25,12.57,F,skyra
223,temple045,adolescent,sl-AB_group_hip,4,AB,0.0775333727544621,-0.0475387324835731,0.1250721052380352,8,0.5,8.909575,1.0,12.57,F,skyra
224,temple045,adolescent,sl-AC_age_hip,1,AC,0.4556143247376761,0.1211133209328284,0.3345010038048476,8,0.875,9.0174125,1.125,12.57,F,skyra
225,temple045,adolescent,sl-AC_age_hip,2,AC,-0.0380855649770578,0.3171726836883582,-0.355258248665416,8,1.0,9.359925,1.0,12.57,F,skyra
226,temple045,adolescent,sl-AC_age_hip,3,AC,0.3064919153003242,0.2096514168641104,0.0968404984362137,8,0.0,9.4515625,1.25,12.57,F,skyra
227,temple045,adolescent,sl-AC_age_hip,4,AC,0.294637005714511,0.2567972919502537,0.0378397137642572,8,0.5,8.909575,1.0,12.57,F,skyra
228,temple050,adult,sl-AB_age_gm,1,AB,-0.2783770522709812,-0.0931143055110558,-0.1852627467599253,8,1.0,5.98855,1.125,34.98,M,skyra
229,temple050,adult,sl-AB_age_gm,2,AB,-0.076336659020975,-0.1957996329969874,0.1194629739760123,8,1.0,7.835325,1.0,34.98,M,skyra
230,temple050,adult,sl-AB_age_gm,3,AB,-0.0590626825096104,-0.1472479488638987,0.0881852663542883,8,1.0,6.0540375,1.0,34.98,M,skyra
231,temple050,adult,sl-AB_age_gm,4,AB,-0.038922750684496,-0.11282249923637,0.0738997485518739,8,1.0,5.71925,1.0,34.98,M,skyra
232,temple050,adult,sl-AB_group_hip,1,AB,0.2494969091978602,0.3757114225000335,-0.1262145133021732,8,1.0,5.98855,1.125,34.98,M,skyra
233,temple050,adult,sl-AB_group_hip,2,AB,0.0379502159301768,0.4108115574705857,-0.3728613415404088,8,1.0,7.835325,1.0,34.98,M,skyra
234,temple050,adult,sl-AB_group_hip,3,AB,0.3215346895465854,0.4405965319751014,-0.119061842428516,8,1.0,6.0540375,1.0,34.98,M,skyra
235,temple050,adult,sl-AB_group_hip,4,AB,-0.0433412857248978,0.3148712777177599,-0.3582125634426577,8,1.0,5.71925,1.0,34.98,M,skyra
236,temple050,adult,sl-AC_age_hip,1,AC,0.1690183320008873,0.1468549830407523,0.022163348960135,8,1.0,5.98855,1.125,34.98,M,skyra
237,temple050,adult,sl-AC_age_hip,2,AC,0.1007821574669501,0.2076232943768212,-0.106841136909871,8,1.0,7.835325,1.0,34.98,M,skyra
238,temple050,adult,sl-AC_age_hip,3,AC,-0.1312068896455785,0.1394456983363375,-0.270652587981916,8,1.0,6.0540375,1.0,34.98,M,skyra
239,temple050,adult,sl-AC_age_hip,4,AC,-0.0196569237402576,0.1051977739058408,-0.1248546976460985,8,1.0,5.71925,1.0,34.98,M,skyra
240,temple051,adolescent,sl-AB_age_gm,1,AB,-0.2076340224374583,-0.0334651995681296,-0.1741688228693286,8,1.0,7.48415,1.0,10.71,F,skyra
241,temple051,adolescent,sl-AB_age_gm,2,AB,-0.0940812976160049,0.0340892864545169,-0.1281705840705218,8,0.875,5.076625,1.0,10.71,F,skyra
242,temple051,adolescent,sl-AB_age_gm,3,AB,0.1111462840290941,-0.050921111750686,0.1620673957797802,8,0.625,6.6358,1.125,10.71,F,skyra
243,temple051,adolescent,sl-AB_age_gm,4,AB,0.3929480068805495,0.1089464268145341,0.2840015800660154,8,0.75,5.4577,1.0,10.71,F,skyra
244,temple051,adolescent,sl-AB_group_hip,1,AB,-0.157574027978745,0.0626151549935976,-0.2201891829723426,8,1.0,7.48415,1.0,10.71,F,skyra
245,temple051,adolescent,sl-AB_group_hip,2,AB,-0.1437690253363801,-0.0617175682782962,-0.0820514570580839,8,0.875,5.076625,1.0,10.71,F,skyra
246,temple051,adolescent,sl-AB_group_hip,3,AB,-0.4876276621220883,-0.218153618340008,-0.2694740437820804,8,0.625,6.6358,1.125,10.71,F,skyra
247,temple051,adolescent,sl-AB_group_hip,4,AB,-0.2169869485318095,-0.1836796999135251,-0.0333072486182844,8,0.75,5.4577,1.0,10.71,F,skyra
248,temple051,adolescent,sl-AC_age_hip,1,AC,0.1668001626416926,0.1726366921230319,-0.0058365294813392,8,1.0,7.48415,1.0,10.71,F,skyra
249,temple051,adolescent,sl-AC_age_hip,2,AC,0.5984372629398627,0.2633023840038974,0.3351348789359653,8,0.875,5.076625,1.0,10.71,F,skyra
250,temple051,adolescent,sl-AC_age_hip,3,AC,0.1902421982317994,0.1038655541069776,0.0863766441248218,8,0.625,6.6358,1.125,10.71,F,skyra
251,temple051,adolescent,sl-AC_age_hip,4,AC,0.0909829323283535,0.2321768892855809,-0.1411939569572273,8,0.75,5.4577,1.0,10.71,F,skyra
252,temple053,child,sl-AB_age_gm,1,AB,-0.0392796674642128,0.0092836163343868,-0.0485632837985997,8,1.0,7.9044,1.25,9.33,M,skyra
253,temple053,child,sl-AB_age_gm,2,AB,-0.1560559163498991,0.0421894514378151,-0.1982453677877142,8,0.875,7.99225,1.125,9.33,M,skyra
254,temple053,child,sl-AB_age_gm,3,AB,0.217468559373682,0.00262665204932,0.2148419073243619,8,0.75,7.9925625,1.375,9.33,M,skyra
255,temple053,child,sl-AB_age_gm,4,AB,0.1635185229389461,0.0262998969916851,0.1372186259472609,8,0.875,7.4450125,1.125,9.33,M,skyra
256,temple053,child,sl-AB_group_hip,1,AB,0.2332316106616589,0.106531952357583,0.1266996583040759,8,1.0,7.9044,1.25,9.33,M,skyra
257,temple053,child,sl-AB_group_hip,2,AB,0.1761040656615843,0.2519155385319612,-0.0758114728703769,8,0.875,7.99225,1.125,9.33,M,skyra
258,temple053,child,sl-AB_group_hip,3,AB,-0.1835729480169218,0.1419845486105878,-0.3255574966275096,8,0.75,7.9925625,1.375,9.33,M,skyra
259,temple053,child,sl-AB_group_hip,4,AB,0.371800087469007,0.151689616621626,0.220110470847381,8,0.875,7.4450125,1.125,9.33,M,skyra
260,temple053,child,sl-AC_age_hip,1,AC,0.1178611917584259,0.0431135303713255,0.0747476613871003,8,1.0,7.9044,1.25,9.33,M,skyra
261,temple053,child,sl-AC_age_hip,2,AC,-0.0200767179788998,0.0834542155848831,-0.103530933563783,8,0.875,7.99225,1.125,9.33,M,skyra
262,temple053,child,sl-AC_age_hip,3,AC,0.0985277538457049,-0.0672833336045617,0.1658110874502666,8,0.75,7.9925625,1.375,9.33,M,skyra
263,temple053,child,sl-AC_age_hip,4,AC,0.1243877628513088,0.0822729260204578,0.042114836830851,8,0.875,7.4450125,1.125,9.33,M,skyra
264,temple056,adult,sl-AB_age_gm,1,AB,0.1828013758723593,-0.0045114964352156,0.187312872307575,8,0.625,10.3624375,1.125,18.47,M,prisma
265,temple056,adult,sl-AB_age_gm,2,AB,0.3276861909180237,0.0275377418685999,0.3001484490494238,8,0.625,10.392175,1.25,18.47,M,prisma
266,temple056,adult,sl-AB_age_gm,3,AB,-0.4509797845543071,-0.0898602722477086,-0.3611195123065985,8,0.375,10.5494,1.25,18.47,M,prisma
267,temple056,adult,sl-AB_age_gm,4,AB,-0.0914913595175669,-0.0679067219115558,-0.023584637606011,8,0.75,10.2771125,1.625,18.47,M,prisma
268,temple056,adult,sl-AB_group_hip,1,AB,0.0852260368376756,-0.0401841950980981,0.1254102319357737,8,0.625,10.3624375,1.125,18.47,M,prisma
269,temple056,adult,sl-AB_group_hip,2,AB,-0.0020637506268801,-0.0632462254125457,0.0611824747856655,8,0.625,10.392175,1.25,18.47,M,prisma
270,temple056,adult,sl-AB_group_hip,3,AB,-0.2760806235945837,-0.0628587380301062,-0.2132218855644774,8,0.375,10.5494,1.25,18.47,M,prisma
271,temple056,adult,sl-AB_group_hip,4,AB,0.0535081682830636,-0.038178899305941,0.0916870675890047,8,0.75,10.2771125,1.625,18.47,M,prisma
272,temple056,adult,sl-AC_age_hip,1,AC,0.1156702747226417,0.076855816721396,0.0388144580012456,8,0.625,10.3624375,1.125,18.47,M,prisma
273,temple056,adult,sl-AC_age_hip,2,AC,-0.266981418040089,-0.0180612289844176,-0.2489201890556714,8,0.625,10.392175,1.25,18.47,M,prisma
274,temple056,adult,sl-AC_age_hip,3,AC,-0.057848499266971,0.0461439184155269,-0.1039924176824979,8,0.375,10.5494,1.25,18.47,M,prisma
275,temple056,adult,sl-AC_age_hip,4,AC,0.3803042439439972,0.0744610401515246,0.3058432037924726,8,0.75,10.2771125,1.625,18.47,M,prisma
276,temple057,adult,sl-AB_age_gm,1,AB,-0.0940629305129761,-0.1208885779758134,0.0268256474628373,8,0.625,9.6335375,1.125,20.61,F,prisma
277,temple057,adult,sl-AB_age_gm,2,AB,-0.471034782752909,-0.1379731991783169,-0.3330615835745921,8,0.5,9.39785,1.0,20.61,F,prisma
278,temple057,adult,sl-AB_age_gm,3,AB,-0.2934326260854409,-0.2785638167326739,-0.014868809352767,8,0.75,9.698475,1.0,20.61,F,prisma
279,temple057,adult,sl-AB_age_gm,4,AB,0.0527549215575377,0.0266175475138737,0.026137374043664,8,0.625,9.5112625,1.0,20.61,F,prisma
280,temple057,adult,sl-AB_group_hip,1,AB,-0.3672858932201873,-0.364874901182662,-0.0024109920375252,8,0.625,9.6335375,1.125,20.61,F,prisma
281,temple057,adult,sl-AB_group_hip,2,AB,0.0578106318530372,-0.1378670694273835,0.1956777012804208,8,0.5,9.39785,1.0,20.61,F,prisma
282,temple057,adult,sl-AB_group_hip,3,AB,-0.2168163169498151,-0.1246373920946172,-0.0921789248551979,8,0.75,9.698475,1.0,20.61,F,prisma
283,temple057,adult,sl-AB_group_hip,4,AB,0.1098865887391738,-0.1612443094018203,0.2711308981409942,8,0.625,9.5112625,1.0,20.61,F,prisma
284,temple057,adult,sl-AC_age_hip,1,AC,0.0859991046516416,-0.0306993533533939,0.1166984580050356,8,0.625,9.6335375,1.125,20.61,F,prisma
285,temple057,adult,sl-AC_age_hip,2,AC,-0.0432367123969113,0.0694891015216597,-0.1127258139185711,8,0.5,9.39785,1.0,20.61,F,prisma
286,temple057,adult,sl-AC_age_hip,3,AC,-0.3086134685637944,-0.0809720268038206,-0.2276414417599738,8,0.75,9.698475,1.0,20.61,F,prisma
287,temple057,adult,sl-AC_age_hip,4,AC,-0.1296590709054377,-0.0375468730111036,-0.0921121978943341,8,0.625,9.5112625,1.0,20.61,F,prisma
288,temple058,adult,sl-AB_age_gm,1,AB,0.0758337935814837,0.0640532955341412,0.0117804980473425,8,0.75,8.1027,1.125,21.49,F,prisma
289,temple058,adult,sl-AB_age_gm,2,AB,0.2069418443501291,0.0053776879501773,0.2015641563999518,8,0.625,7.808475,1.125,21.49,F,prisma
290,temple058,adult,sl-AB_age_gm,3,AB,0.6984444816928354,0.2149879211113421,0.4834565605814931,8,0.75,8.0547125,1.25,21.49,F,prisma
291,temple058,adult,sl-AB_age_gm,4,AB,-0.3480682221709558,0.0945816392928471,-0.442649861463803,8,0.75,8.0934625,1.125,21.49,F,prisma
292,temple058,adult,sl-AB_group_hip,1,AB,0.246736953143149,0.2764546967750669,-0.0297177436319178,8,0.75,8.1027,1.125,21.49,F,prisma
293,temple058,adult,sl-AB_group_hip,2,AB,0.2292439518411931,0.2705349538723122,-0.041291002031119,8,0.625,7.808475,1.125,21.49,F,prisma
294,temple058,adult,sl-AB_group_hip,3,AB,-0.0657264285179293,0.1544206041256976,-0.220147032643627,8,0.75,8.0547125,1.25,21.49,F,prisma
295,temple058,adult,sl-AB_group_hip,4,AB,-0.1090214649103713,0.0995784322226261,-0.2085998971329974,8,0.75,8.0934625,1.125,21.49,F,prisma
296,temple058,adult,sl-AC_age_hip,1,AC,0.2177547372286068,0.09075023484574,0.1270045023828667,8,0.75,8.1027,1.125,21.49,F,prisma
297,temple058,adult,sl-AC_age_hip,2,AC,-0.0486692509718539,0.2605373758804666,-0.3092066268523206,8,0.625,7.808475,1.125,21.49,F,prisma
298,temple058,adult,sl-AC_age_hip,3,AC,-0.1646572809456176,0.2427001365208777,-0.4073574174664953,8,0.75,8.0547125,1.25,21.49,F,prisma
299,temple058,adult,sl-AC_age_hip,4,AC,-0.3480515799517236,0.1420306847157927,-0.4900822646675163,8,0.75,8.0934625,1.125,21.49,F,prisma
300,temple059,adult,sl-AB_age_gm,1,AB,0.0311898486835172,0.0888906451448597,-0.0577007964613424,8,1.0,9.701075,1.25,20.26,F,prisma
301,temple059,adult,sl-AB_age_gm,2,AB,0.184333952164141,0.0455921393959825,0.1387418127681585,8,1.0,9.760275,1.0,20.26,F,prisma
302,temple059,adult,sl-AB_age_gm,3,AB,-0.0718486751581897,0.0262025744643202,-0.09805124962251,8,1.0,9.6942125,1.0,20.26,F,prisma
303,temple059,adult,sl-AB_age_gm,4,AB,0.2330726795813074,0.0436046029164529,0.1894680766648545,8,1.0,9.66105,1.25,20.26,F,prisma
304,temple059,adult,sl-AB_group_hip,1,AB,0.2687727163526129,0.1134559324578081,0.1553167838948047,8,1.0,9.701075,1.25,20.26,F,prisma
305,temple059,adult,sl-AB_group_hip,2,AB,-0.0712737750695344,0.0455482362597726,-0.116822011329307,8,1.0,9.760275,1.0,20.26,F,prisma
306,temple059,adult,sl-AB_group_hip,3,AB,0.0246011024978189,0.0445356649644139,-0.0199345624665949,8,1.0,9.6942125,1.0,20.26,F,prisma
307,temple059,adult,sl-AB_group_hip,4,AB,-0.0839229126118793,0.1653751456472537,-0.2492980582591331,8,1.0,9.66105,1.25,20.26,F,prisma
308,temple059,adult,sl-AC_age_hip,1,AC,-0.1262864413104991,-0.1758518095528358,0.0495653682423366,8,1.0,9.701075,1.25,20.26,F,prisma
309,temple059,adult,sl-AC_age_hip,2,AC,-0.0361918784430818,-0.0265608109737929,-0.0096310674692889,8,1.0,9.760275,1.0,20.26,F,prisma
310,temple059,adult,sl-AC_age_hip,3,AC,0.1607969317006751,-0.0069167143695676,0.1677136460702427,8,1.0,9.6942125,1.0,20.26,F,prisma
311,temple059,adult,sl-AC_age_hip,4,AC,-0.2807278328080267,-0.1190798630666215,-0.1616479697414052,8,1.0,9.66105,1.25,20.26,F,prisma
312,temple060,adolescent,sl-AB_age_gm,1,AB,0.0677363295931541,0.333046372746599,-0.2653100431534448,8,0.75,9.35005,1.375,10.07,M,prisma
313,temple060,adolescent,sl-AB_age_gm,2,AB,0.4387294431254419,0.3486824147224676,0.0900470284029743,8,0.375,9.3853875,1.5,10.07,M,prisma
314,temple060,adolescent,sl-AB_age_gm,3,AB,-0.0114214601481797,0.2543597839344728,-0.2657812440826526,8,0.5,9.9783,1.375,10.07,M,prisma
315,temple060,adolescent,sl-AB_age_gm,4,AB,0.4414065168583579,0.3589598585212377,0.0824466583371202,8,0.75,8.7368875,1.125,10.07,M,prisma
316,temple060,adolescent,sl-AB_group_hip,1,AB,-0.0600740727188701,0.1075055963192914,-0.1675796690381616,8,0.75,9.35005,1.375,10.07,M,prisma
317,temple060,adolescent,sl-AB_group_hip,2,AB,-0.1016191530793382,-0.0678593590864882,-0.03375979399285,8,0.375,9.3853875,1.5,10.07,M,prisma
318,temple060,adolescent,sl-AB_group_hip,3,AB,0.2778597584765604,0.1560424987653049,0.1218172597112554,8,0.5,9.9783,1.375,10.07,M,prisma
319,temple060,adolescent,sl-AB_group_hip,4,AB,-0.255510516768875,0.1055631582722926,-0.3610736750411676,8,0.75,8.7368875,1.125,10.07,M,prisma
320,temple060,adolescent,sl-AC_age_hip,1,AC,0.1820848571650171,0.1109234656189165,0.0711613915461006,8,0.75,9.35005,1.375,10.07,M,prisma
321,temple060,adolescent,sl-AC_age_hip,2,AC,-0.2219429788236681,0.0598144197317445,-0.2817573985554127,8,0.375,9.3853875,1.5,10.07,M,prisma
322,temple060,adolescent,sl-AC_age_hip,3,AC,-0.2590729699411285,0.1060776046580121,-0.3651505745991406,8,0.5,9.9783,1.375,10.07,M,prisma
323,temple060,adolescent,sl-AC_age_hip,4,AC,0.1432915423642038,0.0301917789626281,0.1130997634015756,8,0.75,8.7368875,1.125,10.07,M,prisma
324,temple063,adolescent,sl-AB_age_gm,1,AB,-0.0096832757352582,0.0248453301824347,-0.0345286059176929,8,1.0,5.5193375,1.125,10.72,F,prisma
325,temple063,adolescent,sl-AB_age_gm,2,AB,0.1220704516073744,0.0253308966888446,0.0967395549185298,8,0.625,8.1788875,1.0,10.72,F,prisma
326,temple063,adolescent,sl-AB_age_gm,3,AB,-0.0240223136102301,0.0383426120361998,-0.06236492564643,8,0.5,8.56995,1.0,10.72,F,prisma
327,temple063,adolescent,sl-AB_age_gm,4,AB,0.1993025251346379,0.0647286338937856,0.1345738912408522,8,1.0,8.981325,1.0,10.72,F,prisma
328,temple063,adolescent,sl-AB_group_hip,1,AB,0.1375942403261902,0.0396764466243192,0.097917793701871,8,1.0,5.5193375,1.125,10.72,F,prisma
329,temple063,adolescent,sl-AB_group_hip,2,AB,0.089899834448439,-0.148734205383539,0.238634039831978,8,0.625,8.1788875,1.0,10.72,F,prisma
330,temple063,adolescent,sl-AB_group_hip,3,AB,-0.045763596359283,-0.1552542731740503,0.1094906768147673,8,0.5,8.56995,1.0,10.72,F,prisma
331,temple063,adolescent,sl-AB_group_hip,4,AB,-0.2224560355080681,-0.1268514172961851,-0.0956046182118829,8,1.0,8.981325,1.0,10.72,F,prisma
332,temple063,adolescent,sl-AC_age_hip,1,AC,-0.1849361020923219,-0.2442012063722972,0.0592651042799753,8,1.0,5.5193375,1.125,10.72,F,prisma
333,temple063,adolescent,sl-AC_age_hip,2,AC,-0.4032508723512221,-0.1328846413848377,-0.2703662309663843,8,0.625,8.1788875,1.0,10.72,F,prisma
334,temple063,adolescent,sl-AC_age_hip,3,AC,-0.3450868191614871,-0.1300646884431609,-0.2150221307183261,8,0.5,8.56995,1.0,10.72,F,prisma
335,temple063,adolescent,sl-AC_age_hip,4,AC,-0.4684435728305435,0.146746199957014,-0.6151897727875576,8,1.0,8.981325,1.0,10.72,F,prisma
336,temple064,child,sl-AB_age_gm,1,AB,0.0742216249637665,0.076370726051234,-0.0021491010874675,8,0.5,7.1746,1.375,7.36,M,prisma
337,temple064,child,sl-AB_age_gm,2,AB,-0.1581935168671847,0.084468349848729,-0.2426618667159137,8,0.375,8.5996875,1.0,7.36,M,prisma
338,temple064,child,sl-AB_age_gm,3,AB,-0.0301750570151811,0.064908327925733,-0.0950833849409141,8,0.75,8.6115,1.125,7.36,M,prisma
339,temple064,child,sl-AB_age_gm,4,AB,0.3128135289603495,0.1450731532405674,0.167740375719782,8,0.25,8.3435375,1.125,7.36,M,prisma
340,temple064,child,sl-AB_group_hip,1,AB,0.1145659209134652,0.0490435490017389,0.0655223719117262,8,0.5,7.1746,1.375,7.36,M,prisma
341,temple064,child,sl-AB_group_hip,2,AB,0.0727436779137488,-0.0615982095595368,0.1343418874732857,8,0.375,8.5996875,1.0,7.36,M,prisma
342,temple064,child,sl-AB_group_hip,3,AB,0.6630567953762407,-0.0264340892539269,0.6894908846301677,8,0.75,8.6115,1.125,7.36,M,prisma
343,temple064,child,sl-AB_group_hip,4,AB,0.3230328535329161,-0.0482932006988511,0.3713260542317672,8,0.25,8.3435375,1.125,7.36,M,prisma
344,temple064,child,sl-AC_age_hip,1,AC,0.3259047077462884,0.1951057686834872,0.1307989390628011,8,0.5,7.1746,1.375,7.36,M,prisma
345,temple064,child,sl-AC_age_hip,2,AC,0.441140967573486,0.1751435338531347,0.2659974337203513,8,0.375,8.5996875,1.0,7.36,M,prisma
346,temple064,child,sl-AC_age_hip,3,AC,-0.3557770256954133,0.0771285813833073,-0.4329056070787207,8,0.75,8.6115,1.125,7.36,M,prisma
347,temple064,child,sl-AC_age_hip,4,AC,0.0250033444970554,0.0508584919598035,-0.025855147462748,8,0.25,8.3435375,1.125,7.36,M,prisma
348,temple065,child,sl-AB_age_gm,1,AB,0.1024489772885182,0.1277224637917729,-0.0252734865032547,8,0.625,9.8956625,1.0,9.45,F,prisma
349,temple065,child,sl-AB_age_gm,2,AB,0.0552620832467258,0.135361067001491,-0.0800989837547652,8,0.375,9.9525125,1.125,9.45,F,prisma
350,temple065,child,sl-AB_age_gm,3,AB,0.0389250436589795,0.1076564115703028,-0.0687313679113233,8,0.375,8.628525,1.25,9.45,F,prisma
351,temple065,child,sl-AB_age_gm,4,AB,-0.0929759443317399,0.0447819560728715,-0.1377579004046115,8,0.375,9.584675,1.0,9.45,F,prisma
352,temple065,child,sl-AB_group_hip,1,AB,-0.160301450319029,-0.2474875363627769,0.0871860860437479,8,0.625,9.8956625,1.0,9.45,F,prisma
353,temple065,child,sl-AB_group_hip,2,AB,-0.0467525053773127,-0.2971198519627387,0.250367346585426,8,0.375,9.9525125,1.125,9.45,F,prisma
354,temple065,child,sl-AB_group_hip,3,AB,0.5626254984324603,-0.0280988915116404,0.5907243899441008,8,0.375,8.628525,1.25,9.45,F,prisma
355,temple065,child,sl-AB_group_hip,4,AB,0.2384871873652095,-0.0498040363041844,0.2882912236693939,8,0.375,9.584675,1.0,9.45,F,prisma
356,temple065,child,sl-AC_age_hip,1,AC,0.2376037062656651,-0.1007315784752021,0.3383352847408672,8,0.625,9.8956625,1.0,9.45,F,prisma
357,temple065,child,sl-AC_age_hip,2,AC,0.0246557029065539,-0.1394729319929456,0.1641286348994996,8,0.375,9.9525125,1.125,9.45,F,prisma
358,temple065,child,sl-AC_age_hip,3,AC,-0.1704019939654631,-0.0126059217685082,-0.1577960721969548,8,0.375,8.628525,1.25,9.45,F,prisma
359,temple065,child,sl-AC_age_hip,4,AC,0.0712850614223983,-0.1600698192362427,0.231354880658641,8,0.375,9.584675,1.0,9.45,F,prisma
360,temple066,child,sl-AB_age_gm,1,AB,-0.1327429159574771,-0.208535476136612,0.0757925601791349,8,0.5,8.372725,1.0,9.97,F,prisma
361,temple066,child,sl-AB_age_gm,2,AB,-0.2456148690552296,-0.1934765610504064,-0.0521383080048232,8,0.625,8.2631875,1.0,9.97,F,prisma
362,temple066,child,sl-AB_age_gm,3,AB,-0.4714656608345344,-0.2552412301363912,-0.2162244306981432,8,0.875,5.531325,1.0,9.97,F,prisma
363,temple066,child,sl-AB_age_gm,4,AB,-0.0780617248367954,-0.071000608339305,-0.0070611164974904,8,1.0,7.8515375,1.25,9.97,F,prisma
364,temple066,child,sl-AB_group_hip,1,AB,0.0916890997598158,0.1541277411968803,-0.0624386414370644,8,0.5,8.372725,1.0,9.97,F,prisma
365,temple066,child,sl-AB_group_hip,2,AB,-0.0994586073459438,0.0569463981290499,-0.1564050054749937,8,0.625,8.2631875,1.0,9.97,F,prisma
366,temple066,child,sl-AB_group_hip,3,AB,0.0998475811974864,0.001444636695085,0.0984029445024014,8,0.875,5.531325,1.0,9.97,F,prisma
367,temple066,child,sl-AB_group_hip,4,AB,0.5885283922707728,0.05252718981349,0.5360012024572828,8,1.0,7.8515375,1.25,9.97,F,prisma
368,temple066,child,sl-AC_age_hip,1,AC,-0.3667163296834402,-0.2286017751175371,-0.1381145545659031,8,0.5,8.372725,1.0,9.97,F,prisma
369,temple066,child,sl-AC_age_hip,2,AC,-0.1470902054199904,-0.1375284596379673,-0.009561745782023,8,0.625,8.2631875,1.0,9.97,F,prisma
370,temple066,child,sl-AC_age_hip,3,AC,0.2466758207419964,-0.0719786779953525,0.3186544987373489,8,0.875,5.531325,1.0,9.97,F,prisma
371,temple066,child,sl-AC_age_hip,4,AC,-0.0245202346447643,-0.2017080389983511,0.1771878043535867,8,1.0,7.8515375,1.25,9.97,F,prisma
372,temple068,child,sl-AB_age_gm,1,AB,-0.1336849020714988,-0.0252958152919802,-0.1083890867795185,8,0.75,9.0692375,1.125,9.76,M,prisma
373,temple068,child,sl-AB_age_gm,2,AB,-0.1122882124586741,-0.0494116109633645,-0.0628766014953096,8,0.5,9.038725,1.5,9.76,M,prisma
374,temple068,child,sl-AB_age_gm,3,AB,-0.0292358138744535,0.0225206598996843,-0.0517564737741379,8,0.375,9.0053375,1.125,9.76,M,prisma
375,temple068,child,sl-AB_age_gm,4,AB,-0.0666123984047335,-0.0621229932869495,-0.004489405117784,8,0.875,9.8878125,1.125,9.76,M,prisma
376,temple068,child,sl-AB_group_hip,1,AB,-0.0354009661363043,-0.412392849555404,0.3769918834190997,8,0.75,9.0692375,1.125,9.76,M,prisma
377,temple068,child,sl-AB_group_hip,2,AB,0.0496233092599254,-0.479831758966813,0.5294550682267385,8,0.5,9.038725,1.5,9.76,M,prisma
378,temple068,child,sl-AB_group_hip,3,AB,-0.3639211257730676,-0.3668608221618528,0.0029396963887852,8,0.375,9.0053375,1.125,9.76,M,prisma
379,temple068,child,sl-AB_group_hip,4,AB,-0.25126254862314,-0.3141041109544757,0.0628415623313357,8,0.875,9.8878125,1.125,9.76,M,prisma
380,temple068,child,sl-AC_age_hip,1,AC,0.2218171767778053,0.2215714506206992,0.0002457261571061,8,0.75,9.0692375,1.125,9.76,M,prisma
381,temple068,child,sl-AC_age_hip,2,AC,0.3299470030457227,0.1688125853882707,0.1611344176574519,8,0.5,9.038725,1.5,9.76,M,prisma
382,temple068,child,sl-AC_age_hip,3,AC,0.0439855510341525,0.1464701575471495,-0.1024846065129969,8,0.375,9.0053375,1.125,9.76,M,prisma
383,temple068,child,sl-AC_age_hip,4,AC,0.1705578798844539,0.0392317541935513,0.1313261256909026,8,0.875,9.8878125,1.125,9.76,M,prisma
384,temple069,child,sl-AB_age_gm,1,AB,-0.0389652689213574,0.0282479479281752,-0.0672132168495327,8,0.75,4.1190750000000005,1.0,9.67,M,prisma
385,temple069,child,sl-AB_age_gm,2,AB,0.0973462880836278,0.0163586112011507,0.080987676882477,8,0.25,6.0968,1.125,9.67,M,prisma
386,temple069,child,sl-AB_age_gm,3,AB,0.0716149885899368,0.0257275322911433,0.0458874562987934,8,0.875,4.9677375,1.0,9.67,M,prisma
387,temple069,child,sl-AB_age_gm,4,AB,0.0106588636357104,0.0289849378660023,-0.0183260742302919,8,0.125,5.0740125,1.0,9.67,M,prisma
388,temple069,child,sl-AB_group_hip,1,AB,-0.004318098815467,-0.1285608667374014,0.1242427679219344,8,0.75,4.1190750000000005,1.0,9.67,M,prisma
389,temple069,child,sl-AB_group_hip,2,AB,0.282527250704867,0.2054273652202974,0.0770998854845696,8,0.25,6.0968,1.125,9.67,M,prisma
390,temple069,child,sl-AB_group_hip,3,AB,0.2904862707307116,-0.0314743866239945,0.3219606573547061,8,0.875,4.9677375,1.0,9.67,M,prisma
391,temple069,child,sl-AB_group_hip,4,AB,-0.0300343988681773,0.0283350797371652,-0.0583694786053426,8,0.125,5.0740125,1.0,9.67,M,prisma
392,temple069,child,sl-AC_age_hip,1,AC,-0.1021386470957709,-0.0566538649048371,-0.0454847821909338,8,0.75,4.1190750000000005,1.0,9.67,M,prisma
393,temple069,child,sl-AC_age_hip,2,AC,0.0625355551270168,-0.1692246933011344,0.2317602484281513,8,0.25,6.0968,1.125,9.67,M,prisma
394,temple069,child,sl-AC_age_hip,3,AC,0.1130837703670935,-0.034550942497431,0.1476347128645246,8,0.875,4.9677375,1.0,9.67,M,prisma
395,temple069,child,sl-AC_age_hip,4,AC,-0.2398841641875426,-0.2295731670750259,-0.0103109971125167,8,0.125,5.0740125,1.0,9.67,M,prisma
396,temple070,child,sl-AB_age_gm,1,AB,0.1432395430816452,-0.0492455697795656,0.1924851128612108,8,0.75,9.8027,1.125,7.47,M,prisma
397,temple070,child,sl-AB_age_gm,2,AB,-0.1942113267616569,-0.1211469383302148,-0.0730643884314421,8,0.75,9.231575,1.0,7.47,M,prisma
398,temple070,child,sl-AB_age_gm,3,AB,-0.2142342462818221,-0.1313506073930701,-0.082883638888752,8,0.125,6.8125875,1.0,7.47,M,prisma
399,temple070,child,sl-AB_age_gm,4,AB,-0.0272139806156228,-0.1048438076907458,0.0776298270751229,8,0.375,7.9386875,1.25,7.47,M,prisma
400,temple070,child,sl-AB_group_hip,1,AB,-0.3438483649314101,-0.0754384057568606,-0.2684099591745495,8,0.75,9.8027,1.125,7.47,M,prisma
401,temple070,child,sl-AB_group_hip,2,AB,0.0728061464346386,0.0380650392359862,0.0347411071986523,8,0.75,9.231575,1.0,7.47,M,prisma
402,temple070,child,sl-AB_group_hip,3,AB,0.4651390992598145,-0.0701074926528462,0.5352465919126608,8,0.125,6.8125875,1.0,7.47,M,prisma
403,temple070,child,sl-AB_group_hip,4,AB,-0.0809079994555766,-0.1301599082986883,0.0492519088431116,8,0.375,7.9386875,1.25,7.47,M,prisma
404,temple070,child,sl-AC_age_hip,1,AC,-0.3433177032055338,-0.0559340989111509,-0.2873836042943829,8,0.75,9.8027,1.125,7.47,M,prisma
405,temple070,child,sl-AC_age_hip,2,AC,-0.3098201797054198,0.0419900526301278,-0.3518102323355477,8,0.75,9.231575,1.0,7.47,M,prisma
406,temple070,child,sl-AC_age_hip,3,AC,0.0970622888048214,0.0919890787747616,0.0050732100300597,8,0.125,6.8125875,1.0,7.47,M,prisma
407,temple070,child,sl-AC_age_hip,4,AC,0.0669827390691538,0.1965857484355944,-0.1296030093664406,8,0.375,7.9386875,1.25,7.47,M,prisma
408,temple071,adult,sl-AB_age_gm,1,AB,-0.0210058603639862,-0.0823083016910194,0.0613024413270332,8,1.0,8.44405,1.0,27.31,M,prisma
409,temple071,adult,sl-AB_age_gm,2,AB,0.0250318210751308,-0.1230615724106425,0.1480933934857734,8,1.0,9.2934625,1.25,27.31,M,prisma
410,temple071,adult,sl-AB_age_gm,3,AB,0.0278590852196585,-0.0646955521114237,0.0925546373310823,8,1.0,8.7654875,1.125,27.31,M,prisma
411,temple071,adult,sl-AB_age_gm,4,AB,0.1839545977408851,-0.0431186417023121,0.2270732394431973,8,1.0,9.3108125,1.0,27.31,M,prisma
412,temple071,adult,sl-AB_group_hip,1,AB,0.1289280977751119,-0.0364659142823652,0.1653940120574771,8,1.0,8.44405,1.0,27.31,M,prisma
413,temple071,adult,sl-AB_group_hip,2,AB,0.0633669635864064,-0.036885615633461,0.1002525792198675,8,1.0,9.2934625,1.25,27.31,M,prisma
414,temple071,adult,sl-AB_group_hip,3,AB,0.5641479742399477,0.1285999767470251,0.4355479974929225,8,1.0,8.7654875,1.125,27.31,M,prisma
415,temple071,adult,sl-AB_group_hip,4,AB,-0.1668886969269176,0.0210197565459019,-0.1879084534728196,8,1.0,9.3108125,1.0,27.31,M,prisma
416,temple071,adult,sl-AC_age_hip,1,AC,0.1949794976346552,0.0149533199063538,0.1800261777283013,8,1.0,8.44405,1.0,27.31,M,prisma
417,temple071,adult,sl-AC_age_hip,2,AC,-0.148904810320292,0.0748064605203252,-0.2237112708406173,8,1.0,9.2934625,1.25,27.31,M,prisma
418,temple071,adult,sl-AC_age_hip,3,AC,0.2008870551953044,0.065677800571538,0.1352092546237663,8,1.0,8.7654875,1.125,27.31,M,prisma
419,temple071,adult,sl-AC_age_hip,4,AC,0.2483702738709815,0.0705778473024249,0.1777924265685566,8,1.0,9.3108125,1.0,27.31,M,prisma
420,temple072,adult,sl-AB_age_gm,1,AB,-0.413698969902724,-0.1735656025986027,-0.2401333673041213,8,0.625,11.308225,1.0,19.53,F,prisma
421,temple072,adult,sl-AB_age_gm,2,AB,0.1221215844437236,0.0271496525443836,0.09497193189934,8,0.625,9.557825,1.25,19.53,F,prisma
422,temple072,adult,sl-AB_age_gm,3,AB,0.4529354514169637,-0.0913430415257906,0.5442784929427543,8,0.5,9.84055,1.0,19.53,F,prisma
423,temple072,adult,sl-AB_age_gm,4,AB,-0.1598801640801343,-0.0701112675084896,-0.0897688965716446,8,0.875,9.3300375,1.125,19.53,F,prisma
424,temple072,adult,sl-AB_group_hip,1,AB,-0.3650876557712267,-0.1589882356208415,-0.2060994201503852,8,0.625,11.308225,1.0,19.53,F,prisma
425,temple072,adult,sl-AB_group_hip,2,AB,0.160809915389823,-0.0267547426193765,0.1875646580091995,8,0.625,9.557825,1.25,19.53,F,prisma
426,temple072,adult,sl-AB_group_hip,3,AB,-0.0955753183856994,-0.1787207899980278,0.0831454716123283,8,0.5,9.84055,1.0,19.53,F,prisma
427,temple072,adult,sl-AB_group_hip,4,AB,-0.1117029524425025,-0.058407777204449,-0.0532951752380534,8,0.875,9.3300375,1.125,19.53,F,prisma
428,temple072,adult,sl-AC_age_hip,1,AC,-0.1110473812750253,-0.0083351221950671,-0.1027122590799581,8,0.625,11.308225,1.0,19.53,F,prisma
429,temple072,adult,sl-AC_age_hip,2,AC,0.0634049034800935,-0.0319579333004023,0.0953628367804959,8,0.625,9.557825,1.25,19.53,F,prisma
430,temple072,adult,sl-AC_age_hip,3,AC,-0.2825302489255947,-0.0527019473173705,-0.2298283016082242,8,0.5,9.84055,1.0,19.53,F,prisma
431,temple072,adult,sl-AC_age_hip,4,AC,-0.1573362212859175,-0.089156368538117,-0.0681798527478004,8,0.875,9.3300375,1.125,19.53,F,prisma
432,temple073,adult,sl-AB_age_gm,1,AB,-0.2982586587340764,-0.2080309151041743,-0.090227743629902,8,1.0,9.60495,1.25,32.17,M,prisma
433,temple073,adult,sl-AB_age_gm,2,AB,-0.343109452575121,-0.0516325533010939,-0.291476899274027,8,1.0,9.7205875,1.0,32.17,M,prisma
434,temple073,adult,sl-AB_age_gm,3,AB,0.132129711333812,-0.0305064843961272,0.1626361957299392,8,1.0,9.5921,1.0,32.17,M,prisma
435,temple073,adult,sl-AB_age_gm,4,AB,-0.1042224114553982,-0.183330265803416,0.0791078543480178,8,1.0,9.5993375,1.0,32.17,M,prisma
436,temple073,adult,sl-AB_group_hip,1,AB,-0.2569005404491051,-0.1347623078359031,-0.1221382326132019,8,1.0,9.60495,1.25,32.17,M,prisma
437,temple073,adult,sl-AB_group_hip,2,AB,0.2208059755402506,-0.1067941280024632,0.3276001035427138,8,1.0,9.7205875,1.0,32.17,M,prisma
438,temple073,adult,sl-AB_group_hip,3,AB,0.0016928112707348,-0.1245413471353536,0.1262341584060884,8,1.0,9.5921,1.0,32.17,M,prisma
439,temple073,adult,sl-AB_group_hip,4,AB,0.2672314547395828,-0.0905066477438772,0.3577381024834601,8,1.0,9.5993375,1.0,32.17,M,prisma
440,temple073,adult,sl-AC_age_hip,1,AC,0.0284015702995402,-0.0168366665020745,0.0452382368016148,8,1.0,9.60495,1.25,32.17,M,prisma
441,temple073,adult,sl-AC_age_hip,2,AC,0.1727924361135021,-0.0544502983519422,0.2272427344654444,8,1.0,9.7205875,1.0,32.17,M,prisma
442,temple073,adult,sl-AC_age_hip,3,AC,0.1519011672313001,-0.045571736668519,0.1974729038998192,8,1.0,9.5921,1.0,32.17,M,prisma
443,temple073,adult,sl-AC_age_hip,4,AC,-0.0168543899661615,-0.0306462278800651,0.0137918379139035,8,1.0,9.5993375,1.0,32.17,M,prisma
444,temple074,adult,sl-AB_age_gm,1,AB,0.1830597988103657,-0.0427630035337742,0.2258228023441399,8,1.0,8.76025,1.0,20.21,F,prisma
445,temple074,adult,sl-AB_age_gm,2,AB,0.2075688670277891,-0.0516082734102786,0.2591771404380678,8,1.0,8.5115125,1.0,20.21,F,prisma
446,temple074,adult,sl-AB_age_gm,3,AB,-0.1546861059710064,-0.1004488438788138,-0.0542372620921925,8,1.0,9.24125,1.125,20.21,F,prisma
447,temple074,adult,sl-AB_age_gm,4,AB,-0.0206201146579435,0.0256992999290224,-0.0463194145869659,8,1.0,8.2290625,1.0,20.21,F,prisma
448,temple074,adult,sl-AB_group_hip,1,AB,-0.0166653473236903,-0.0317858410409218,0.0151204937172315,8,1.0,8.76025,1.0,20.21,F,prisma
449,temple074,adult,sl-AB_group_hip,2,AB,0.2739483593781051,-0.1055459193898991,0.3794942787680042,8,1.0,8.5115125,1.0,20.21,F,prisma
450,temple074,adult,sl-AB_group_hip,3,AB,-0.3025967331198925,-0.1166014431089553,-0.1859952900109371,8,1.0,9.24125,1.125,20.21,F,prisma
451,temple074,adult,sl-AB_group_hip,4,AB,0.4171675308286373,0.1201236110545087,0.2970439197741286,8,1.0,8.2290625,1.0,20.21,F,prisma
452,temple074,adult,sl-AC_age_hip,1,AC,-0.0523040414810443,-0.0006447462615788,-0.0516592952194655,8,1.0,8.76025,1.0,20.21,F,prisma
453,temple074,adult,sl-AC_age_hip,2,AC,-0.1285414626643282,-0.0816282838076182,-0.0469131788567099,8,1.0,8.5115125,1.0,20.21,F,prisma
454,temple074,adult,sl-AC_age_hip,3,AC,0.1273179252237,1.6186043311542446e-05,0.1273017391803885,8,1.0,9.24125,1.125,20.21,F,prisma
455,temple074,adult,sl-AC_age_hip,4,AC,0.0316229517602993,0.0259325229270789,0.0056904288332204,8,1.0,8.2290625,1.0,20.21,F,prisma
456,temple075,adult,sl-AB_age_gm,1,AB,-0.222816500721258,-0.3333352674223214,0.1105187667010633,8,1.0,9.9730625,1.125,20.37,M,prisma
457,temple075,adult,sl-AB_age_gm,2,AB,-0.2871519101428015,-0.2183662386766938,-0.0687856714661076,8,0.75,10.1717,1.375,20.37,M,prisma
458,temple075,adult,sl-AB_age_gm,3,AB,-0.1024568275222964,-0.2983663207917498,0.1959094932694533,8,1.0,9.9526625,1.0,20.37,M,prisma
459,temple075,adult,sl-AB_age_gm,4,AB,-0.1521110829112047,-0.3124672280887064,0.1603561451775017,8,1.0,10.076825,1.125,20.37,M,prisma
460,temple075,adult,sl-AB_group_hip,1,AB,0.3836809654903324,0.209551408318116,0.1741295571722163,8,1.0,9.9730625,1.125,20.37,M,prisma
461,temple075,adult,sl-AB_group_hip,2,AB,0.0194430473215792,0.0952777754898692,-0.0758347281682899,8,0.75,10.1717,1.375,20.37,M,prisma
462,temple075,adult,sl-AB_group_hip,3,AB,-0.2247187107321765,0.0613100403806537,-0.2860287511128302,8,1.0,9.9526625,1.0,20.37,M,prisma
463,temple075,adult,sl-AB_group_hip,4,AB,0.2682544026779132,0.1354528010145591,0.132801601663354,8,1.0,10.076825,1.125,20.37,M,prisma
464,temple075,adult,sl-AC_age_hip,1,AC,-0.0075888838523998,0.0484165832596733,-0.0560054671120731,8,1.0,9.9730625,1.125,20.37,M,prisma
465,temple075,adult,sl-AC_age_hip,2,AC,-0.0322916210620128,0.1400639410547347,-0.1723555621167476,8,0.75,10.1717,1.375,20.37,M,prisma
466,temple075,adult,sl-AC_age_hip,3,AC,0.4189495109302534,0.141740098631164,0.2772094122990893,8,1.0,9.9526625,1.0,20.37,M,prisma
467,temple075,adult,sl-AC_age_hip,4,AC,0.3390206107410869,0.209635261544189,0.1293853491968979,8,1.0,10.076825,1.125,20.37,M,prisma
468,temple076,adult,sl-AB_age_gm,1,AB,0.1191007929805187,-0.034812793546447,0.1539135865269658,8,1.0,9.7057375,1.0,21.25,M,prisma
469,temple076,adult,sl-AB_age_gm,2,AB,-0.1595608422789007,-0.0491127103077986,-0.110448131971102,8,1.0,9.62385,1.0,21.25,M,prisma
470,temple076,adult,sl-AB_age_gm,3,AB,-0.0077181032983438,-0.0886726527754889,0.080954549477145,8,1.0,9.857975,1.25,21.25,M,prisma
471,temple076,adult,sl-AB_age_gm,4,AB,-0.0269564303763179,-0.0680661414647364,0.0411097110884185,8,1.0,9.5242875,1.25,21.25,M,prisma
472,temple076,adult,sl-AB_group_hip,1,AB,-0.02685865569569,0.1354832376585875,-0.1623418933542776,8,1.0,9.7057375,1.0,21.25,M,prisma
473,temple076,adult,sl-AB_group_hip,2,AB,0.2723576716681027,0.2270329149054937,0.045324756762609,8,1.0,9.62385,1.0,21.25,M,prisma
474,temple076,adult,sl-AB_group_hip,3,AB,-0.1231425169768946,0.1592077770067426,-0.2823502939836373,8,1.0,9.857975,1.25,21.25,M,prisma
475,temple076,adult,sl-AB_group_hip,4,AB,0.7972750003919749,0.176473663211213,0.6208013371807618,8,1.0,9.5242875,1.25,21.25,M,prisma
476,temple076,adult,sl-AC_age_hip,1,AC,0.0238080337658119,-0.2134174382308691,0.237225471996681,8,1.0,9.7057375,1.0,21.25,M,prisma
477,temple076,adult,sl-AC_age_hip,2,AC,-0.230375686687031,-0.2278229366968015,-0.0025527499902295,8,1.0,9.62385,1.0,21.25,M,prisma
478,temple076,adult,sl-AC_age_hip,3,AC,-0.1885217786728834,-0.2688903412399299,0.0803685625670464,8,1.0,9.857975,1.25,21.25,M,prisma
479,temple076,adult,sl-AC_age_hip,4,AC,-0.2031444655237784,-0.1891835716762719,-0.0139608938475064,8,1.0,9.5242875,1.25,21.25,M,prisma
480,temple078,child,sl-AB_age_gm,1,AB,-0.0061141912842189,0.0493956648124555,-0.0555098560966745,8,1.0,9.7301,1.125,7.79,F,prisma
481,temple078,child,sl-AB_age_gm,2,AB,-0.0487271169253231,-0.0571256743338854,0.0083985574085623,8,1.0,9.3920625,1.25,7.79,F,prisma
482,temple078,child,sl-AB_age_gm,3,AB,-0.0040400665244633,-0.0023987647879602,-0.001641301736503,8,0.875,9.4581375,1.0,7.79,F,prisma
483,temple078,child,sl-AB_age_gm,4,AB,-0.003643468374285,0.0781725851229296,-0.0818160534972147,8,0.625,10.5604375,1.0,7.79,F,prisma
484,temple078,child,sl-AB_group_hip,1,AB,0.0930250286708754,0.1430258974097581,-0.0500008687388827,8,1.0,9.7301,1.125,7.79,F,prisma
485,temple078,child,sl-AB_group_hip,2,AB,0.3058950394674672,0.1042192608463549,0.2016757786211123,8,1.0,9.3920625,1.25,7.79,F,prisma
486,temple078,child,sl-AB_group_hip,3,AB,0.0891960130968006,-0.0014628263343001,0.0906588394311007,8,0.875,9.4581375,1.0,7.79,F,prisma
487,temple078,child,sl-AB_group_hip,4,AB,-0.240574450840564,-0.0699213624940558,-0.1706530883465082,8,0.625,10.5604375,1.0,7.79,F,prisma
488,temple078,child,sl-AC_age_hip,1,AC,0.2800251071979439,0.1386691000145961,0.1413560071833478,8,1.0,9.7301,1.125,7.79,F,prisma
489,temple078,child,sl-AC_age_hip,2,AC,0.0989528754912093,0.1968955618162682,-0.0979426863250589,8,1.0,9.3920625,1.25,7.79,F,prisma
490,temple078,child,sl-AC_age_hip,3,AC,-0.0571356939472423,0.1491044643858751,-0.2062401583331175,8,0.875,9.4581375,1.0,7.79,F,prisma
491,temple078,child,sl-AC_age_hip,4,AC,-0.0676665169264849,0.1154818680805247,-0.1831483850070096,8,0.625,10.5604375,1.0,7.79,F,prisma
492,temple079,adolescent,sl-AB_age_gm,1,AB,-0.3329655279519344,-0.3173016730882476,-0.0156638548636868,8,1.0,5.178075,1.0,10.79,M,prisma
493,temple079,adolescent,sl-AB_age_gm,2,AB,-0.1069187496197105,-0.1966561996274264,0.0897374500077159,8,1.0,6.6689625,1.125,10.79,M,prisma
494,temple079,adolescent,sl-AB_age_gm,3,AB,-0.3205283381505714,-0.3416870777711283,0.0211587396205568,8,1.0,6.7284749999999995,1.375,10.79,M,prisma
495,temple079,adolescent,sl-AB_age_gm,4,AB,-0.6187583607529236,-0.2738203901662876,-0.3449379705866359,8,1.0,6.4156125,1.0,10.79,M,prisma
496,temple079,adolescent,sl-AB_group_hip,1,AB,0.1631751628968202,0.1651124215419646,-0.0019372586451444,8,1.0,5.178075,1.0,10.79,M,prisma
497,temple079,adolescent,sl-AB_group_hip,2,AB,0.3446508088929392,0.1759351725895473,0.1687156363033919,8,1.0,6.6689625,1.125,10.79,M,prisma
498,temple079,adolescent,sl-AB_group_hip,3,AB,0.1877539662454287,0.1657302808096001,0.0220236854358285,8,1.0,6.7284749999999995,1.375,10.79,M,prisma
499,temple079,adolescent,sl-AB_group_hip,4,AB,0.3138210481625676,0.2329405591156267,0.0808804890469409,8,1.0,6.4156125,1.0,10.79,M,prisma
500,temple079,adolescent,sl-AC_age_hip,1,AC,-0.1992788470954757,-0.1978890153044611,-0.0013898317910146,8,1.0,5.178075,1.0,10.79,M,prisma
501,temple079,adolescent,sl-AC_age_hip,2,AC,0.0722258952604475,-0.0585413516091825,0.1307672468696301,8,1.0,6.6689625,1.125,10.79,M,prisma
502,temple079,adolescent,sl-AC_age_hip,3,AC,0.2236622302047294,-0.0671638007914093,0.2908260309961388,8,1.0,6.7284749999999995,1.375,10.79,M,prisma
503,temple079,adolescent,sl-AC_age_hip,4,AC,0.0077906465096378,-0.044850384340035,0.0526410308496728,8,1.0,6.4156125,1.0,10.79,M,prisma
504,temple082,adolescent,sl-AB_age_gm,1,AB,-0.126304007292807,-0.1586913135373419,0.0323873062445348,8,0.5,9.880775,1.5,11.37,M,prisma
505,temple082,adolescent,sl-AB_age_gm,2,AB,0.0317758947590596,-0.1534876880751859,0.1852635828342456,8,0.75,10.1142375,1.25,11.37,M,prisma
506,temple082,adolescent,sl-AB_age_gm,3,AB,-0.1869273696781831,-0.0992244133878802,-0.0877029562903028,8,0.25,9.881375,1.375,11.37,M,prisma
507,temple082,adolescent,sl-AB_age_gm,4,AB,-0.084387208151555,-0.0337924013557496,-0.0505948067958053,8,0.25,11.202675,1.625,11.37,M,prisma
508,temple082,adolescent,sl-AB_group_hip,1,AB,0.2559566781100109,0.0444299481566332,0.2115267299533776,8,0.5,9.880775,1.5,11.37,M,prisma
509,temple082,adolescent,sl-AB_group_hip,2,AB,-0.3996578585251326,-0.060575042248519,-0.3390828162766136,8,0.75,10.1142375,1.25,11.37,M,prisma
510,temple082,adolescent,sl-AB_group_hip,3,AB,-0.0359347835319055,0.1205254672683135,-0.1564602508002191,8,0.25,9.881375,1.375,11.37,M,prisma
511,temple082,adolescent,sl-AB_group_hip,4,AB,-0.0666885348895067,0.0024616153939638,-0.0691501502834705,8,0.25,11.202675,1.625,11.37,M,prisma
512,temple082,adolescent,sl-AC_age_hip,1,AC,-0.2041003451529063,0.0082805714027412,-0.2123809165556476,8,0.5,9.880775,1.5,11.37,M,prisma
513,temple082,adolescent,sl-AC_age_hip,2,AC,-0.1197756033984869,0.0444749532532519,-0.1642505566517389,8,0.75,10.1142375,1.25,11.37,M,prisma
514,temple082,adolescent,sl-AC_age_hip,3,AC,-0.2372351255683641,0.0604623809650684,-0.2976975065334326,8,0.25,9.881375,1.375,11.37,M,prisma
515,temple082,adolescent,sl-AC_age_hip,4,AC,0.2481453121205194,-0.0222476909285993,0.2703930030491188,8,0.25,11.202675,1.625,11.37,M,prisma
516,temple083,adolescent,sl-AB_age_gm,1,AB,-0.2814664589629465,-0.3812392699206386,0.0997728109576921,8,1.0,8.6368875,1.0,12.89,M,prisma
517,temple083,adolescent,sl-AB_age_gm,2,AB,-0.2150590407638229,-0.2542729337983342,0.0392138930345113,8,1.0,7.745375,1.125,12.89,M,prisma
518,temple083,adolescent,sl-AB_age_gm,3,AB,-0.2124369777924327,-0.2693508204525494,0.0569138426601167,8,1.0,7.8150125,1.0,12.89,M,prisma
519,temple083,adolescent,sl-AB_age_gm,4,AB,-0.5474178900917136,-0.3626189907709394,-0.1847988993207741,8,1.0,7.8224,1.125,12.89,M,prisma
520,temple083,adolescent,sl-AB_group_hip,1,AB,0.0559654204407723,-0.0886257290821015,0.1445911495228739,8,1.0,8.6368875,1.0,12.89,M,prisma
521,temple083,adolescent,sl-AB_group_hip,2,AB,0.0316396847704508,-0.1800895740108914,0.2117292587813423,8,1.0,7.745375,1.125,12.89,M,prisma
522,temple083,adolescent,sl-AB_group_hip,3,AB,-0.1252267147167187,-0.1898727988321516,0.0646460841154329,8,1.0,7.8150125,1.0,12.89,M,prisma
523,temple083,adolescent,sl-AB_group_hip,4,AB,-0.0395006502525657,-0.2137958372647657,0.1742951870121999,8,1.0,7.8224,1.125,12.89,M,prisma
524,temple083,adolescent,sl-AC_age_hip,1,AC,-0.0378030842232156,0.086433371897354,-0.1242364561205697,8,1.0,8.6368875,1.0,12.89,M,prisma
525,temple083,adolescent,sl-AC_age_hip,2,AC,0.2968649184014526,-0.0319098829134531,0.3287748013149058,8,1.0,7.745375,1.125,12.89,M,prisma
526,temple083,adolescent,sl-AC_age_hip,3,AC,0.1099098387869405,0.0811163714990854,0.028793467287855,8,1.0,7.8150125,1.0,12.89,M,prisma
527,temple083,adolescent,sl-AC_age_hip,4,AC,-0.1916691573921181,0.0496279403622032,-0.2412970977543213,8,1.0,7.8224,1.125,12.89,M,prisma
528,temple084,child,sl-AB_age_gm,1,AB,-0.0971198162398318,-0.0416207458654766,-0.0554990703743552,8,0.75,9.5547125,1.0,8.77,F,prisma
529,temple084,child,sl-AB_age_gm,2,AB,-0.112305048996735,-0.0109521147996763,-0.1013529341970587,8,0.5,9.5167375,1.0,8.77,F,prisma
530,temple084,child,sl-AB_age_gm,3,AB,-0.0007016003203164,-0.0956057332902627,0.0949041329699462,8,0.125,10.792675,1.0,8.77,F,prisma
531,temple084,child,sl-AB_age_gm,4,AB,0.0453102112801962,0.0065531717272361,0.03875703955296,8,0.375,11.571575,1.25,8.77,F,prisma
532,temple084,child,sl-AB_group_hip,1,AB,-0.1263268310902491,-0.1465373243117446,0.0202104932214955,8,0.75,9.5547125,1.0,8.77,F,prisma
533,temple084,child,sl-AB_group_hip,2,AB,-0.4094876861266213,-0.1490942543784655,-0.2603934317481557,8,0.5,9.5167375,1.0,8.77,F,prisma
534,temple084,child,sl-AB_group_hip,3,AB,0.0491940825963311,-0.1310489912234551,0.1802430738197862,8,0.125,10.792675,1.0,8.77,F,prisma
535,temple084,child,sl-AB_group_hip,4,AB,-0.3113719267990464,-0.1309126850228721,-0.1804592417761742,8,0.375,11.571575,1.25,8.77,F,prisma
536,temple084,child,sl-AC_age_hip,1,AC,0.2044920336932769,0.1022006626609132,0.1022913710323637,8,0.75,9.5547125,1.0,8.77,F,prisma
537,temple084,child,sl-AC_age_hip,2,AC,-0.2959821072343138,0.0001080755568879,-0.2960901827912018,8,0.5,9.5167375,1.0,8.77,F,prisma
538,temple084,child,sl-AC_age_hip,3,AC,0.1254492747145683,0.0769856248306666,0.0484636498839017,8,0.125,10.792675,1.0,8.77,F,prisma
539,temple084,child,sl-AC_age_hip,4,AC,-0.1797933031945724,-0.002963731413548,-0.1768295717810244,8,0.375,11.571575,1.25,8.77,F,prisma
540,temple085,adolescent,sl-AB_age_gm,1,AB,-0.0082522536696105,-0.0760365680247621,0.0677843143551515,8,0.125,10.151175,1.25,11.46,F,prisma
541,temple085,adolescent,sl-AB_age_gm,2,AB,-0.0070331455912875,0.0234340998869885,-0.0304672454782761,8,0.5,9.6142875,1.125,11.46,F,prisma
542,temple085,adolescent,sl-AB_age_gm,3,AB,0.0291766551490195,-0.0402519265843906,0.0694285817334101,8,0.25,10.5292125,1.25,11.46,F,prisma
543,temple085,adolescent,sl-AB_age_gm,4,AB,-0.2766726642405395,-0.0327136215591772,-0.2439590426813622,8,0.5,9.9298875,1.25,11.46,F,prisma
544,temple085,adolescent,sl-AB_group_hip,1,AB,-0.4190435020013076,0.0567908751645024,-0.47583437716581,8,0.125,10.151175,1.25,11.46,F,prisma
545,temple085,adolescent,sl-AB_group_hip,2,AB,0.0218908736389543,0.0016188135281078,0.0202720601108464,8,0.5,9.6142875,1.125,11.46,F,prisma
546,temple085,adolescent,sl-AB_group_hip,3,AB,0.0301954401581736,-0.0076010785166269,0.0377965186748005,8,0.25,10.5292125,1.25,11.46,F,prisma
547,temple085,adolescent,sl-AB_group_hip,4,AB,0.297579331357134,0.1694577786261232,0.1281215527310108,8,0.5,9.9298875,1.25,11.46,F,prisma
548,temple085,adolescent,sl-AC_age_hip,1,AC,-0.5246615147967634,-0.1318207095782303,-0.392840805218533,8,0.125,10.151175,1.25,11.46,F,prisma
549,temple085,adolescent,sl-AC_age_hip,2,AC,-0.1092637971038567,-0.0762612169870263,-0.0330025801168303,8,0.5,9.6142875,1.125,11.46,F,prisma
550,temple085,adolescent,sl-AC_age_hip,3,AC,0.2035990337496844,0.0086967128843424,0.194902320865342,8,0.25,10.5292125,1.25,11.46,F,prisma
551,temple085,adolescent,sl-AC_age_hip,4,AC,-0.3152488720131488,-0.0693016390913994,-0.2459472329217494,8,0.5,9.9298875,1.25,11.46,F,prisma
552,temple087,adult,sl-AB_age_gm,1,AB,-0.0962775146549841,0.016865456601482,-0.1131429712564662,8,1.0,8.1770125,1.0,23.23,F,prisma
553,temple087,adult,sl-AB_age_gm,2,AB,0.0972032351086133,0.0784257110920871,0.0187775240165262,8,0.875,9.022025,1.0,23.23,F,prisma
554,temple087,adult,sl-AB_age_gm,3,AB,0.0390838338643953,-0.0347232336521871,0.0738070675165824,8,1.0,8.2282,1.0,23.23,F,prisma
555,temple087,adult,sl-AB_age_gm,4,AB,0.1115746090803909,-0.0366887682460936,0.1482633773264845,8,0.875,8.088962500000001,1.0,23.23,F,prisma
556,temple087,adult,sl-AB_group_hip,1,AB,0.379417516573246,-0.0884299616382732,0.4678474782115193,8,1.0,8.1770125,1.0,23.23,F,prisma
557,temple087,adult,sl-AB_group_hip,2,AB,-0.0188435306436304,-0.1589037419340051,0.1400602112903746,8,0.875,9.022025,1.0,23.23,F,prisma
558,temple087,adult,sl-AB_group_hip,3,AB,0.0298232830130396,-0.0678318909487296,0.0976551739617693,8,1.0,8.2282,1.0,23.23,F,prisma
559,temple087,adult,sl-AB_group_hip,4,AB,-0.4334248870578068,-0.0969703238723504,-0.3364545631854563,8,0.875,8.088962500000001,1.0,23.23,F,prisma
560,temple087,adult,sl-AC_age_hip,1,AC,0.0923989739817246,0.0559663016679207,0.0364326723138038,8,1.0,8.1770125,1.0,23.23,F,prisma
561,temple087,adult,sl-AC_age_hip,2,AC,-0.2458242357307259,-0.030934577258371,-0.2148896584723549,8,0.875,9.022025,1.0,23.23,F,prisma
562,temple087,adult,sl-AC_age_hip,3,AC,-0.0253569440565842,-0.0256939435591392,0.0003369995025549,8,1.0,8.2282,1.0,23.23,F,prisma
563,temple087,adult,sl-AC_age_hip,4,AC,-0.2775102039339009,0.0535222562427142,-0.3310324601766151,8,0.875,8.088962500000001,1.0,23.23,F,prisma
564,temple088,adult,sl-AB_age_gm,1,AB,-0.1395384124490305,-0.1555673992317588,0.0160289867827283,8,1.0,10.09015,1.0,21.85,F,prisma
565,temple088,adult,sl-AB_age_gm,2,AB,0.2823719741031014,-0.0287754415431011,0.3111474156462025,8,1.0,10.2154375,1.0,21.85,F,prisma
566,temple088,adult,sl-AB_age_gm,3,AB,-0.2401765393631785,-0.0424695459687536,-0.1977069933944248,8,1.0,11.4059125,1.0,21.85,F,prisma
567,temple088,adult,sl-AB_age_gm,4,AB,0.1012130953823562,-0.0090379065401408,0.110251001922497,8,1.0,10.5091125,1.0,21.85,F,prisma
568,temple088,adult,sl-AB_group_hip,1,AB,-0.1235041999649822,-0.1861332562661321,0.0626290563011499,8,1.0,10.09015,1.0,21.85,F,prisma
569,temple088,adult,sl-AB_group_hip,2,AB,0.0784648734014095,-0.0052755709646518,0.0837404443660614,8,1.0,10.2154375,1.0,21.85,F,prisma
570,temple088,adult,sl-AB_group_hip,3,AB,0.0307091820653164,-0.1412627719847331,0.1719719540500495,8,1.0,11.4059125,1.0,21.85,F,prisma
571,temple088,adult,sl-AB_group_hip,4,AB,0.274439647290679,-0.1566722012784579,0.431111848569137,8,1.0,10.5091125,1.0,21.85,F,prisma
572,temple088,adult,sl-AC_age_hip,1,AC,-0.0314500466187325,-0.0768867266474412,0.0454366800287087,8,1.0,10.09015,1.0,21.85,F,prisma
573,temple088,adult,sl-AC_age_hip,2,AC,-0.4322899284007953,-0.1407078252677135,-0.2915821031330817,8,1.0,10.2154375,1.0,21.85,F,prisma
574,temple088,adult,sl-AC_age_hip,3,AC,0.031674075749174,-0.106902389609775,0.138576465358949,8,1.0,11.4059125,1.0,21.85,F,prisma
575,temple088,adult,sl-AC_age_hip,4,AC,0.3126321550684233,0.0139201267177359,0.2987120283506873,8,1.0,10.5091125,1.0,21.85,F,prisma
576,temple089,adult,sl-AB_age_gm,1,AB,0.3738152697023895,0.0352972517481671,0.3385180179542223,8,1.0,7.8222125,1.0,19.34,F,prisma
577,temple089,adult,sl-AB_age_gm,2,AB,-0.1557098757808977,0.0772903716189039,-0.2330002473998016,8,1.0,7.347,1.0,19.34,F,prisma
578,temple089,adult,sl-AB_age_gm,3,AB,0.2430551229770892,0.0702922896481758,0.1727628333289133,8,1.0,7.9465375,1.0,19.34,F,prisma
579,temple089,adult,sl-AB_age_gm,4,AB,0.148394563373896,0.0737811670365348,0.0746133963373612,8,1.0,7.8557625,1.0,19.34,F,prisma
580,temple089,adult,sl-AB_group_hip,1,AB,0.061819859914615,0.0097398512253494,0.0520800086892655,8,1.0,7.8222125,1.0,19.34,F,prisma
581,temple089,adult,sl-AB_group_hip,2,AB,-0.0556040211527248,0.1383045567458848,-0.1939085778986096,8,1.0,7.347,1.0,19.34,F,prisma
582,temple089,adult,sl-AB_group_hip,3,AB,-0.1888666626915115,-0.1791178323568406,-0.0097488303346709,8,1.0,7.9465375,1.0,19.34,F,prisma
583,temple089,adult,sl-AB_group_hip,4,AB,0.0726059122616518,0.0165101218008493,0.0560957904608025,8,1.0,7.8557625,1.0,19.34,F,prisma
584,temple089,adult,sl-AC_age_hip,1,AC,-0.1046127918795789,-0.1036231515753896,-0.0009896403041893,8,1.0,7.8222125,1.0,19.34,F,prisma
585,temple089,adult,sl-AC_age_hip,2,AC,0.3132758945557292,0.1694354501968961,0.143840444358833,8,1.0,7.347,1.0,19.34,F,prisma
586,temple089,adult,sl-AC_age_hip,3,AC,-0.3176416846879151,-0.0486164853484375,-0.2690251993394775,8,1.0,7.9465375,1.0,19.34,F,prisma
587,temple089,adult,sl-AC_age_hip,4,AC,-0.152973582361344,0.0488859259745954,-0.2018595083359395,8,1.0,7.8557625,1.0,19.34,F,prisma
588,temple090,adolescent,sl-AB_age_gm,1,AB,-0.1584712373088594,0.0746449419807764,-0.2331161792896359,8,1.0,7.7792,1.0,12.52,F,prisma
589,temple090,adolescent,sl-AB_age_gm,2,AB,-0.0339151653737633,-0.0357373530343658,0.0018221876606025,8,1.0,7.7081875,1.0,12.52,F,prisma
590,temple090,adolescent,sl-AB_age_gm,3,AB,0.0822514215010633,0.0320623305802241,0.0501890909208392,8,1.0,7.6151375,1.0,12.52,F,prisma
591,temple090,adolescent,sl-AB_age_gm,4,AB,0.0602097504046497,0.0505045784031782,0.0097051720014714,8,1.0,7.837675,1.0,12.52,F,prisma
592,temple090,adolescent,sl-AB_group_hip,1,AB,-0.1758990173430501,-0.1294941217753441,-0.0464048955677059,8,1.0,7.7792,1.0,12.52,F,prisma
593,temple090,adolescent,sl-AB_group_hip,2,AB,0.0003629122184202,-0.0504274742361442,0.0507903864545644,8,1.0,7.7081875,1.0,12.52,F,prisma
594,temple090,adolescent,sl-AB_group_hip,3,AB,0.0908732808103918,-0.0293855353119476,0.1202588161223394,8,1.0,7.6151375,1.0,12.52,F,prisma
595,temple090,adolescent,sl-AB_group_hip,4,AB,-0.0465092891294659,0.0055285665266964,-0.0520378556561624,8,1.0,7.837675,1.0,12.52,F,prisma
596,temple090,adolescent,sl-AC_age_hip,1,AC,0.288215298415901,0.1772719598002882,0.1109433386156127,8,1.0,7.7792,1.0,12.52,F,prisma
597,temple090,adolescent,sl-AC_age_hip,2,AC,0.2512900355192304,0.1730103519132927,0.0782796836059376,8,1.0,7.7081875,1.0,12.52,F,prisma
598,temple090,adolescent,sl-AC_age_hip,3,AC,0.24873859751516,0.2744841111223612,-0.0257455136072012,8,1.0,7.6151375,1.0,12.52,F,prisma
599,temple090,adolescent,sl-AC_age_hip,4,AC,-0.1052491213422082,0.1446235439813046,-0.2498726653235128,8,1.0,7.837675,1.0,12.52,F,prisma
600,temple091,adolescent,sl-AB_age_gm,1,AB,0.0908779581595907,0.0125407693464464,0.0783371888131443,8,1.0,8.262125,1.375,11.28,F,prisma
601,temple091,adolescent,sl-AB_age_gm,2,AB,0.1159909124809626,-0.0272346573813881,0.1432255698623508,8,0.875,7.756975000000001,1.125,11.28,F,prisma
602,temple091,adolescent,sl-AB_age_gm,3,AB,-0.0122992371488473,-0.0667614709362423,0.054462233787395,8,1.0,8.09695,1.0,11.28,F,prisma
603,temple091,adolescent,sl-AB_age_gm,4,AB,0.1205464589042242,0.04288625740124,0.0776602015029841,8,0.875,8.5084625,1.0,11.28,F,prisma
604,temple091,adolescent,sl-AB_group_hip,1,AB,0.3871069540005886,0.0929279585219061,0.2941789954786825,8,1.0,8.262125,1.375,11.28,F,prisma
605,temple091,adolescent,sl-AB_group_hip,2,AB,0.7593105790099107,0.2571885433731311,0.5021220356367796,8,0.875,7.756975000000001,1.125,11.28,F,prisma
606,temple091,adolescent,sl-AB_group_hip,3,AB,0.439712385212971,0.2732961588539446,0.1664162263590264,8,1.0,8.09695,1.0,11.28,F,prisma
607,temple091,adolescent,sl-AB_group_hip,4,AB,-0.0835175487175945,0.0970118801228934,-0.1805294288404879,8,0.875,8.5084625,1.0,11.28,F,prisma
608,temple091,adolescent,sl-AC_age_hip,1,AC,-0.0101262980506004,0.0508517635566689,-0.0609780616072694,8,1.0,8.262125,1.375,11.28,F,prisma
609,temple091,adolescent,sl-AC_age_hip,2,AC,0.0744158263672857,0.030429034806843,0.0439867915604427,8,0.875,7.756975000000001,1.125,11.28,F,prisma
610,temple091,adolescent,sl-AC_age_hip,3,AC,0.2260011458953309,0.1102180694691115,0.1157830764262194,8,1.0,8.09695,1.0,11.28,F,prisma
611,temple091,adolescent,sl-AC_age_hip,4,AC,-0.1293490799992184,0.0779319932608585,-0.207281073260077,8,0.875,8.5084625,1.0,11.28,F,prisma
612,temple092,child,sl-AB_age_gm,1,AB,0.0016565141342374,0.0105098361731163,-0.0088533220388789,8,0.125,10.5333,1.375,8.87,F,prisma
613,temple092,child,sl-AB_age_gm,2,AB,0.0874286415221959,0.1100132487916527,-0.0225846072694567,8,0.375,11.6240375,1.0,8.87,F,prisma
614,temple092,child,sl-AB_age_gm,3,AB,0.2971153173984455,0.1396174921288683,0.1574978252695771,8,0.5,11.7215875,1.25,8.87,F,prisma
615,temple092,child,sl-AB_age_gm,4,AB,0.2100135558209207,0.0311824360307065,0.1788311197902142,8,0.5,12.5633125,1.125,8.87,F,prisma
616,temple092,child,sl-AB_group_hip,1,AB,0.1122751371222438,0.0386876068119807,0.073587530310263,8,0.125,10.5333,1.375,8.87,F,prisma
617,temple092,child,sl-AB_group_hip,2,AB,-0.3642593489157246,-0.0272064793011472,-0.3370528696145773,8,0.375,11.6240375,1.0,8.87,F,prisma
618,temple092,child,sl-AB_group_hip,3,AB,0.1191573535794858,0.083502364899103,0.0356549886803828,8,0.5,11.7215875,1.25,8.87,F,prisma
619,temple092,child,sl-AB_group_hip,4,AB,0.2131731229132106,0.0972758353646434,0.1158972875485672,8,0.5,12.5633125,1.125,8.87,F,prisma
620,temple092,child,sl-AC_age_hip,1,AC,-0.1698052288101764,0.1890254668863907,-0.3588306956965671,8,0.125,10.5333,1.375,8.87,F,prisma
621,temple092,child,sl-AC_age_hip,2,AC,-0.2848924264415877,0.0274771093709508,-0.3123695358125386,8,0.375,11.6240375,1.0,8.87,F,prisma
622,temple092,child,sl-AC_age_hip,3,AC,-0.0380697910893632,0.2056024212382072,-0.2436722123275705,8,0.5,11.7215875,1.25,8.87,F,prisma
623,temple092,child,sl-AC_age_hip,4,AC,0.4663134076387584,0.1831969619143504,0.283116445724408,8,0.5,12.5633125,1.125,8.87,F,prisma
624,temple093,adolescent,sl-AB_age_gm,1,AB,-0.1708235638769669,-0.0955885188143969,-0.07523504506257,8,0.875,6.071124999999999,1.0,10.28,M,prisma
625,temple093,adolescent,sl-AB_age_gm,2,AB,-0.2078774886844739,0.0741744086984066,-0.2820518973828805,8,0.875,8.385575,1.0,10.28,M,prisma
626,temple093,adolescent,sl-AB_age_gm,3,AB,0.0451493037011717,0.1496381809854961,-0.1044888772843244,8,1.0,8.425012500000001,1.125,10.28,M,prisma
627,temple093,adolescent,sl-AB_age_gm,4,AB,-0.0672572324319119,-0.0039576064894273,-0.0632996259424845,8,0.875,6.5395,1.125,10.28,M,prisma
628,temple093,adolescent,sl-AB_group_hip,1,AB,0.4021681960998431,0.0898114654656622,0.3123567306341808,8,0.875,6.071124999999999,1.0,10.28,M,prisma
629,temple093,adolescent,sl-AB_group_hip,2,AB,0.1658490952911421,0.2131515572830816,-0.0473024619919394,8,0.875,8.385575,1.0,10.28,M,prisma
630,temple093,adolescent,sl-AB_group_hip,3,AB,0.2550818368874514,0.1556361304795422,0.0994457064079091,8,1.0,8.425012500000001,1.125,10.28,M,prisma
631,temple093,adolescent,sl-AB_group_hip,4,AB,-0.0532477190654366,0.2505576138570193,-0.303805332922456,8,0.875,6.5395,1.125,10.28,M,prisma
632,temple093,adolescent,sl-AC_age_hip,1,AC,-0.1359446564618687,-0.0105119636279741,-0.1254326928338946,8,0.875,6.071124999999999,1.0,10.28,M,prisma
633,temple093,adolescent,sl-AC_age_hip,2,AC,0.2555054433714214,0.0810893326852949,0.1744161106861264,8,0.875,8.385575,1.0,10.28,M,prisma
634,temple093,adolescent,sl-AC_age_hip,3,AC,0.0082164391532179,-0.1159845913362709,0.1242010304894888,8,1.0,8.425012500000001,1.125,10.28,M,prisma
635,temple093,adolescent,sl-AC_age_hip,4,AC,-0.0676152049882614,0.0735205836949332,-0.1411357886831946,8,0.875,6.5395,1.125,10.28,M,prisma
636,temple094,child,sl-AB_age_gm,1,AB,-0.0074760467095271,0.014596124515063,-0.0220721712245901,8,1.0,9.225175,1.125,8.38,F,prisma
637,temple094,child,sl-AB_age_gm,2,AB,0.137583104863549,0.0997177574636965,0.0378653473998524,8,1.0,10.6877375,1.375,8.38,F,prisma
638,temple094,child,sl-AB_age_gm,3,AB,-0.1031634187283982,0.025921153893247,-0.1290845726216453,8,1.0,9.8224875,1.375,8.38,F,prisma
639,temple094,child,sl-AB_age_gm,4,AB,-0.3172389826802679,-0.0303396651501652,-0.2868993175301026,8,1.0,9.8328625,1.375,8.38,F,prisma
640,temple094,child,sl-AB_group_hip,1,AB,-0.2179051672197961,-0.1501106931792906,-0.0677944740405055,8,1.0,9.225175,1.125,8.38,F,prisma
641,temple094,child,sl-AB_group_hip,2,AB,-0.0609550869066735,-0.0358935281823398,-0.0250615587243336,8,1.0,10.6877375,1.375,8.38,F,prisma
642,temple094,child,sl-AB_group_hip,3,AB,0.0026181707016042,-0.0488223110951688,0.0514404817967731,8,1.0,9.8224875,1.375,8.38,F,prisma
643,temple094,child,sl-AB_group_hip,4,AB,-0.1051055046429431,0.1008220861892825,-0.2059275908322257,8,1.0,9.8328625,1.375,8.38,F,prisma
644,temple094,child,sl-AC_age_hip,1,AC,0.0777782829913594,-0.0485999381130049,0.1263782211043644,8,1.0,9.225175,1.125,8.38,F,prisma
645,temple094,child,sl-AC_age_hip,2,AC,0.1231855433366418,-0.0692195871738785,0.1924051305105203,8,1.0,10.6877375,1.375,8.38,F,prisma
646,temple094,child,sl-AC_age_hip,3,AC,0.5115519517394177,0.0155113278872207,0.496040623852197,8,1.0,9.8224875,1.375,8.38,F,prisma
647,temple094,child,sl-AC_age_hip,4,AC,-0.3583213610985304,-0.1944402504418302,-0.1638811106567002,8,1.0,9.8328625,1.375,8.38,F,prisma
648,temple095,child,sl-AB_age_gm,1,AB,0.1807104010504095,0.084788627280505,0.0959217737699045,8,0.875,9.1079875,1.0,8.04,M,prisma
649,temple095,child,sl-AB_age_gm,2,AB,0.1535267589164857,0.1790838370439172,-0.0255570781274315,8,0.625,9.5339125,1.0,8.04,M,prisma
650,temple095,child,sl-AB_age_gm,3,AB,-0.1339370438383204,0.0552183712590231,-0.1891554150973435,8,0.5,8.9696375,1.0,8.04,M,prisma
651,temple095,child,sl-AB_age_gm,4,AB,0.25601578155636,0.124055441664464,0.1319603398918959,8,0.75,10.1121125,1.125,8.04,M,prisma
652,temple095,child,sl-AB_group_hip,1,AB,0.009038134494246,-0.0439239562372337,0.0529620907314798,8,0.875,9.1079875,1.0,8.04,M,prisma
653,temple095,child,sl-AB_group_hip,2,AB,-0.1281456445034123,0.0049047500782018,-0.1330503945816142,8,0.625,9.5339125,1.0,8.04,M,prisma
654,temple095,child,sl-AB_group_hip,3,AB,0.2681705952546324,0.0276794405381071,0.2404911547165252,8,0.5,8.9696375,1.0,8.04,M,prisma
655,temple095,child,sl-AB_group_hip,4,AB,0.1479461510477249,-0.0260840247826452,0.1740301758303702,8,0.75,10.1121125,1.125,8.04,M,prisma
656,temple095,child,sl-AC_age_hip,1,AC,-0.0754578426722829,0.2358539606045916,-0.3113118032768745,8,0.875,9.1079875,1.0,8.04,M,prisma
657,temple095,child,sl-AC_age_hip,2,AC,0.1505770519778022,0.0410072268451017,0.1095698251327004,8,0.625,9.5339125,1.0,8.04,M,prisma
658,temple095,child,sl-AC_age_hip,3,AC,0.4215537684506193,0.1536774329768532,0.2678763354737661,8,0.5,8.9696375,1.0,8.04,M,prisma
659,temple095,child,sl-AC_age_hip,4,AC,0.2472814951465793,0.1222061551074011,0.1250753400391782,8,0.75,10.1121125,1.125,8.04,M,prisma
660,temple096,adolescent,sl-AB_age_gm,1,AB,0.0778011814120246,0.0004296843161234,0.0773714970959011,8,0.75,12.2249125,1.0,11.4,M,prisma
661,temple096,adolescent,sl-AB_age_gm,2,AB,-0.2195667978816236,-0.0570034550976218,-0.1625633427840018,8,0.875,10.5492625,1.0,11.4,M,prisma
662,temple096,adolescent,sl-AB_age_gm,3,AB,0.0364751340390208,0.0625610363193347,-0.0260859022803138,8,0.25,10.5675375,1.125,11.4,M,prisma
663,temple096,adolescent,sl-AB_age_gm,4,AB,-0.0983283701839303,-0.0189297137206708,-0.0793986564632594,8,1.0,9.2339125,1.0,11.4,M,prisma
664,temple096,adolescent,sl-AB_group_hip,1,AB,-0.0507367579231899,-0.2461401871234973,0.1954034292003073,8,0.75,12.2249125,1.0,11.4,M,prisma
665,temple096,adolescent,sl-AB_group_hip,2,AB,0.0606321771819504,-0.1711450944954606,0.2317772716774111,8,0.875,10.5492625,1.0,11.4,M,prisma
666,temple096,adolescent,sl-AB_group_hip,3,AB,0.1488963376960718,-0.3357149270484973,0.4846112647445691,8,0.25,10.5675375,1.125,11.4,M,prisma
667,temple096,adolescent,sl-AB_group_hip,4,AB,-0.4824775309813922,-0.2224666617795341,-0.2600108692018581,8,1.0,9.2339125,1.0,11.4,M,prisma
668,temple096,adolescent,sl-AC_age_hip,1,AC,0.2337052414091946,0.1311856998902966,0.1025195415188979,8,0.75,12.2249125,1.0,11.4,M,prisma
669,temple096,adolescent,sl-AC_age_hip,2,AC,-0.1384452771776765,-0.0551627606976289,-0.0832825164800475,8,0.875,10.5492625,1.0,11.4,M,prisma
670,temple096,adolescent,sl-AC_age_hip,3,AC,0.125113198015436,0.002779210963476,0.12233398705196,8,0.25,10.5675375,1.125,11.4,M,prisma
671,temple096,adolescent,sl-AC_age_hip,4,AC,0.1535991615870055,0.1648260154766685,-0.0112268538896629,8,1.0,9.2339125,1.0,11.4,M,prisma
672,temple097,child,sl-AB_age_gm,1,AB,-0.3735244229501782,0.0062092220336782,-0.3797336449838563,8,0.375,12.2119125,1.25,7.8,F,prisma
673,temple097,child,sl-AB_age_gm,2,AB,0.0608872173215145,-0.1248137743494007,0.1857009916709152,8,0.875,10.26435,1.25,7.8,F,prisma
674,temple097,child,sl-AB_age_gm,3,AB,-0.1872304047257216,-0.2301562134182881,0.0429258086925664,8,0.625,9.6588625,1.625,7.8,F,prisma
675,temple097,child,sl-AB_age_gm,4,AB,-0.6257967850795685,-0.2037201520925677,-0.4220766329870007,8,0.75,9.5806125,1.625,7.8,F,prisma
676,temple097,child,sl-AB_group_hip,1,AB,0.0710469464137714,0.0174879386364526,0.0535590077773188,8,0.375,12.2119125,1.25,7.8,F,prisma
677,temple097,child,sl-AB_group_hip,2,AB,0.2112111340489602,-0.218512782303019,0.4297239163519792,8,0.875,10.26435,1.25,7.8,F,prisma
678,temple097,child,sl-AB_group_hip,3,AB,0.3208474566937586,-0.0686464054539484,0.3894938621477071,8,0.625,9.6588625,1.625,7.8,F,prisma
679,temple097,child,sl-AB_group_hip,4,AB,-0.200250941479625,-0.1436661161194209,-0.056584825360204,8,0.75,9.5806125,1.625,7.8,F,prisma
680,temple097,child,sl-AC_age_hip,1,AC,0.4539846485553178,0.1867607045976391,0.2672239439576787,8,0.375,12.2119125,1.25,7.8,F,prisma
681,temple097,child,sl-AC_age_hip,2,AC,0.1192343533462561,0.2442591216771386,-0.1250247683308824,8,0.875,10.26435,1.25,7.8,F,prisma
682,temple097,child,sl-AC_age_hip,3,AC,0.1090239966074156,0.2451360624038906,-0.136112065796475,8,0.625,9.6588625,1.625,7.8,F,prisma
683,temple097,child,sl-AC_age_hip,4,AC,-0.0215120350624571,0.2252898517885656,-0.2468018868510228,8,0.75,9.5806125,1.625,7.8,F,prisma
684,temple098,child,sl-AB_age_gm,1,AB,0.0286778875559991,-0.0809811002532023,0.1096589878092014,8,0.625,8.13925,1.25,8.44,M,prisma
685,temple098,child,sl-AB_age_gm,2,AB,-0.2704716857357247,-0.227728342676243,-0.0427433430594816,8,0.625,9.08505,1.375,8.44,M,prisma
686,temple098,child,sl-AB_age_gm,3,AB,-0.2734616796210454,-0.2413759907792819,-0.0320856888417634,8,0.875,8.970575,1.5,8.44,M,prisma
687,temple098,child,sl-AB_age_gm,4,AB,0.0115887879792146,-0.0809417258597254,0.0925305138389401,8,0.5,8.43625,1.375,8.44,M,prisma
688,temple098,child,sl-AB_group_hip,1,AB,0.2230529054137027,0.0230456591202995,0.2000072462934031,8,0.625,8.13925,1.25,8.44,M,prisma
689,temple098,child,sl-AB_group_hip,2,AB,0.2178464288777734,0.2537083178209124,-0.035861888943139,8,0.625,9.08505,1.375,8.44,M,prisma
690,temple098,child,sl-AB_group_hip,3,AB,0.4697251100454798,0.0880344609856932,0.3816906490597865,8,0.875,8.970575,1.5,8.44,M,prisma
691,temple098,child,sl-AB_group_hip,4,AB,0.2232890705597658,0.1513017388360373,0.0719873317237285,8,0.5,8.43625,1.375,8.44,M,prisma
692,temple098,child,sl-AC_age_hip,1,AC,-0.234290123764168,0.1703388945126032,-0.4046290182767713,8,0.625,8.13925,1.25,8.44,M,prisma
693,temple098,child,sl-AC_age_hip,2,AC,0.1220835603769207,0.1057460872601694,0.0163374731167512,8,0.625,9.08505,1.375,8.44,M,prisma
694,temple098,child,sl-AC_age_hip,3,AC,-0.3645374408613673,0.0924715537107475,-0.4570089945721148,8,0.875,8.970575,1.5,8.44,M,prisma
695,temple098,child,sl-AC_age_hip,4,AC,0.0723089071618849,0.1297387847950533,-0.0574298776331684,8,0.5,8.43625,1.375,8.44,M,prisma
696,temple099,adult,sl-AB_age_gm,1,AB,0.610688092789294,0.3483308506647277,0.2623572421245663,8,1.0,8.1625875,1.125,19.88,F,prisma
697,temple099,adult,sl-AB_age_gm,2,AB,0.1251556636836983,0.2619716822907989,-0.1368160186071006,8,1.0,8.2207125,1.125,19.88,F,prisma
698,temple099,adult,sl-AB_age_gm,3,AB,0.1893458277989112,0.2209230342818563,-0.0315772064829451,8,1.0,8.3365875,1.0,19.88,F,prisma
699,temple099,adult,sl-AB_age_gm,4,AB,0.5478842919487839,0.232830401791671,0.3150538901571128,8,0.875,8.2729375,1.125,19.88,F,prisma
700,temple099,adult,sl-AB_group_hip,1,AB,0.0111133082823555,-0.1391676147760053,0.1502809230583608,8,1.0,8.1625875,1.125,19.88,F,prisma
701,temple099,adult,sl-AB_group_hip,2,AB,0.1196689233477061,0.031435005125625,0.0882339182220811,8,1.0,8.2207125,1.125,19.88,F,prisma
702,temple099,adult,sl-AB_group_hip,3,AB,0.1023819767067148,0.0168904727844527,0.085491503922262,8,1.0,8.3365875,1.0,19.88,F,prisma
703,temple099,adult,sl-AB_group_hip,4,AB,0.2393356542071083,0.0334227094681596,0.2059129447389486,8,0.875,8.2729375,1.125,19.88,F,prisma
704,temple099,adult,sl-AC_age_hip,1,AC,0.2194983871846207,0.0948023692371938,0.1246960179474269,8,1.0,8.1625875,1.125,19.88,F,prisma
705,temple099,adult,sl-AC_age_hip,2,AC,-0.2603817968966026,0.0374835385701213,-0.2978653354667239,8,1.0,8.2207125,1.125,19.88,F,prisma
706,temple099,adult,sl-AC_age_hip,3,AC,0.5867274678351835,0.1135403344939455,0.4731871333412379,8,1.0,8.3365875,1.0,19.88,F,prisma
707,temple099,adult,sl-AC_age_hip,4,AC,0.2890517391234666,0.1728050075193891,0.1162467316040775,8,0.875,8.2729375,1.125,19.88,F,prisma
708,temple103,adolescent,sl-AB_age_gm,1,AB,0.5181534965296367,0.0655083704997743,0.4526451260298624,8,1.0,9.1519125,1.0,12.21,M,prisma
709,temple103,adolescent,sl-AB_age_gm,2,AB,-0.0730984553178619,-0.0880848862446945,0.0149864309268326,8,1.0,9.7648625,1.375,12.21,M,prisma
710,temple103,adolescent,sl-AB_age_gm,3,AB,-0.0681919570423855,0.1092328399651278,-0.1774247970075134,8,1.0,9.1939625,1.875,12.21,M,prisma
711,temple103,adolescent,sl-AB_age_gm,4,AB,0.1030580791543234,0.0118446999036329,0.0912133792506905,8,1.0,9.383775,1.625,12.21,M,prisma
712,temple103,adolescent,sl-AB_group_hip,1,AB,0.0634089376504465,0.0256795629180742,0.0377293747323722,8,1.0,9.1519125,1.0,12.21,M,prisma
713,temple103,adolescent,sl-AB_group_hip,2,AB,-0.0051957327988542,-0.0081293284106589,0.0029335956118047,8,1.0,9.7648625,1.375,12.21,M,prisma
714,temple103,adolescent,sl-AB_group_hip,3,AB,-0.3398782419728762,-0.1268689597687212,-0.213009282204155,8,1.0,9.1939625,1.875,12.21,M,prisma
715,temple103,adolescent,sl-AB_group_hip,4,AB,-0.2279832202697273,-0.1025443271674744,-0.1254388931022528,8,1.0,9.383775,1.625,12.21,M,prisma
716,temple103,adolescent,sl-AC_age_hip,1,AC,0.3746989803108582,0.0632750194787724,0.3114239608320858,8,1.0,9.1519125,1.0,12.21,M,prisma
717,temple103,adolescent,sl-AC_age_hip,2,AC,-0.232751205125218,-0.0579022831888646,-0.1748489219363533,8,1.0,9.7648625,1.375,12.21,M,prisma
718,temple103,adolescent,sl-AC_age_hip,3,AC,-0.0562227266127434,0.0228983040380615,-0.0791210306508049,8,1.0,9.1939625,1.875,12.21,M,prisma
719,temple103,adolescent,sl-AC_age_hip,4,AC,-0.0839855116974171,0.0383028124172509,-0.1222883241146681,8,1.0,9.383775,1.625,12.21,M,prisma
720,temple105,adult,sl-AB_age_gm,1,AB,0.212175340254296,0.0362357444901516,0.1759395957641443,8,1.0,6.308425,1.0,18.56,M,prisma
721,temple105,adult,sl-AB_age_gm,2,AB,-0.1280127696126038,-0.0061691209442636,-0.1218436486683402,8,1.0,7.5462875,1.125,18.56,M,prisma
722,temple105,adult,sl-AB_age_gm,3,AB,0.1939328527652888,0.0636495466001687,0.1302833061651201,8,1.0,7.7039125,1.25,18.56,M,prisma
723,temple105,adult,sl-AB_age_gm,4,AB,0.1007112396598466,0.0187004722067981,0.0820107674530485,8,1.0,8.0820375,1.0,18.56,M,prisma
724,temple105,adult,sl-AB_group_hip,1,AB,0.1105425824900705,0.012527223151315,0.0980153593387554,8,1.0,6.308425,1.0,18.56,M,prisma
725,temple105,adult,sl-AB_group_hip,2,AB,0.1250332017016364,-0.0416493249962529,0.1666825266978893,8,1.0,7.5462875,1.125,18.56,M,prisma
726,temple105,adult,sl-AB_group_hip,3,AB,-0.1234193631316261,-0.0557329730936346,-0.0676863900379914,8,1.0,7.7039125,1.25,18.56,M,prisma
727,temple105,adult,sl-AB_group_hip,4,AB,0.2154450609455639,-0.0853545837261067,0.3007996446716706,8,1.0,8.0820375,1.0,18.56,M,prisma
728,temple105,adult,sl-AC_age_hip,1,AC,0.2132876102593659,0.1206008311748275,0.0926867790845383,8,1.0,6.308425,1.0,18.56,M,prisma
729,temple105,adult,sl-AC_age_hip,2,AC,0.0136247899878001,0.1123500139139954,-0.0987252239261952,8,1.0,7.5462875,1.125,18.56,M,prisma
730,temple105,adult,sl-AC_age_hip,3,AC,0.070064959386424,0.07617731831522,-0.006112358928796,8,1.0,7.7039125,1.25,18.56,M,prisma
731,temple105,adult,sl-AC_age_hip,4,AC,0.090775943140309,0.0136500475656764,0.0771258955746326,8,1.0,8.0820375,1.0,18.56,M,prisma
732,temple106,adult,sl-AB_age_gm,1,AB,-0.0226424258403715,0.1913512652773959,-0.2139936911177674,8,1.0,8.532375,1.0,20.19,M,prisma
733,temple106,adult,sl-AB_age_gm,2,AB,0.8029339416252581,0.3970390668526861,0.405894874772572,8,1.0,8.3306625,1.0,20.19,M,prisma
734,temple106,adult,sl-AB_age_gm,3,AB,-0.0291669758552789,0.2263896640676476,-0.2555566399229265,8,1.0,8.2832625,1.0,20.19,M,prisma
735,temple106,adult,sl-AB_age_gm,4,AB,0.0618668174821727,0.3395785448665301,-0.2777117273843574,8,0.875,8.3000625,1.0,20.19,M,prisma
736,temple106,adult,sl-AB_group_hip,1,AB,0.0241708918248931,-0.1164485896117825,0.1406194814366757,8,1.0,8.532375,1.0,20.19,M,prisma
737,temple106,adult,sl-AB_group_hip,2,AB,0.441392753109922,0.0262612190921418,0.4151315340177801,8,1.0,8.3306625,1.0,20.19,M,prisma
738,temple106,adult,sl-AB_group_hip,3,AB,-0.0778958154448418,0.0401706512307856,-0.1180664666756274,8,1.0,8.2832625,1.0,20.19,M,prisma
739,temple106,adult,sl-AB_group_hip,4,AB,-0.228039546571232,-0.011924890253978,-0.216114656317254,8,0.875,8.3000625,1.0,20.19,M,prisma
740,temple106,adult,sl-AC_age_hip,1,AC,-0.0982712497963806,0.009360035554407,-0.1076312853507876,8,1.0,8.532375,1.0,20.19,M,prisma
741,temple106,adult,sl-AC_age_hip,2,AC,0.0349023683666423,-0.0532863294161252,0.0881886977827676,8,1.0,8.3306625,1.0,20.19,M,prisma
742,temple106,adult,sl-AC_age_hip,3,AC,0.0210755960805609,0.0198753075680783,0.0012002885124825,8,1.0,8.2832625,1.0,20.19,M,prisma
